"Subject"	"DemoAge.RESP"	"DemoEthnicity.RESP"	"DemoGender.RESP"	"DemoRace.RESP"	"responseMappingRace"	"responseMappingVal"	"Block"	"Trial"	"SubTrial"	"Task"	"TrialType"	"faceRace"	"FixArea"	"wordVal"	"responseAccData"	"TargetWord.ACC"	"TargetWord.RT"	"Effort.RESP"	"Attentive.RESP"	"PrimePic"	"TargetWord"
1	1	2	1	5	"blackRight"	"posLeft"	1	1	1	"practiceBlockEval"	"White_eyes_negative"	"White"	"eyes"	"negative"	1	0	236	5	3	"White64.jpg"	"Neg16.jpg"
1	1	2	1	5	"blackRight"	"posLeft"	1	1	2	"practiceBlockEval"	"White_eyes_positive"	"White"	"eyes"	"positive"	1	0	503	5	3	"White65.jpg"	"Pos14.jpg"
1	1	2	1	5	"blackRight"	"posLeft"	1	1	3	"practiceBlockEval"	"Black_forehead_positive"	"Black"	"forehead"	"positive"	3	0	0	5	3	"Black65.jpg"	"Pos12.jpg"
1	1	2	1	5	"blackRight"	"posLeft"	1	1	4	"practiceBlockEval"	"White_forehead_negative"	"White"	"forehead"	"negative"	2	1	483	5	3	"White62.jpg"	"Neg11.jpg"
1	1	2	1	5	"blackRight"	"posLeft"	1	1	5	"practiceBlockEval"	"White_forehead_positive"	"White"	"forehead"	"positive"	2	1	482	5	3	"White67.jpg"	"Pos13.jpg"
1	1	2	1	5	"blackRight"	"posLeft"	1	1	6	"practiceBlockEval"	"Black_eyes_negative"	"Black"	"eyes"	"negative"	2	1	712	5	3	"Black61.jpg"	"Neg14.jpg"
1	1	2	1	5	"blackRight"	"posLeft"	1	1	7	"practiceBlockEval"	"White_eyes_positive"	"White"	"eyes"	"positive"	3	0	0	5	3	"White66.jpg"	"Pos9.jpg"
1	1	2	1	5	"blackRight"	"posLeft"	1	1	8	"practiceBlockEval"	"Black_forehead_positive"	"Black"	"forehead"	"positive"	2	1	579	5	3	"Black64.jpg"	"Pos10.jpg"
1	1	2	1	5	"blackRight"	"posLeft"	1	1	9	"practiceBlockEval"	"Black_forehead_negative"	"Black"	"forehead"	"negative"	2	1	521	5	3	"Black69.jpg"	"Neg9.jpg"
1	1	2	1	5	"blackRight"	"posLeft"	1	1	10	"practiceBlockEval"	"Black_eyes_positive"	"Black"	"eyes"	"positive"	2	1	542	5	3	"Black63.jpg"	"Pos15.jpg"
1	1	2	1	5	"blackRight"	"posLeft"	1	1	11	"practiceBlockEval"	"Black_eyes_negative"	"Black"	"eyes"	"negative"	2	1	612	5	3	"Black62.jpg"	"Neg12.jpg"
1	1	2	1	5	"blackRight"	"posLeft"	1	1	12	"practiceBlockEval"	"Black_forehead_negative"	"Black"	"forehead"	"negative"	2	1	482	5	3	"Black66.jpg"	"Neg10.jpg"
1	1	2	1	5	"blackRight"	"posLeft"	1	1	13	"practiceBlockEval"	"White_eyes_negative"	"White"	"eyes"	"negative"	2	1	687	5	3	"White61.jpg"	"Neg13.jpg"
1	1	2	1	5	"blackRight"	"posLeft"	1	1	14	"practiceBlockEval"	"White_forehead_positive"	"White"	"forehead"	"positive"	2	1	701	5	3	"White63.jpg"	"Pos16.jpg"
1	1	2	1	5	"blackRight"	"posLeft"	1	1	15	"practiceBlockEval"	"Black_eyes_positive"	"Black"	"eyes"	"positive"	2	1	579	5	3	"Black68.jpg"	"Pos11.jpg"
1	1	2	1	5	"blackRight"	"posLeft"	1	1	16	"practiceBlockEval"	"White_forehead_negative"	"White"	"forehead"	"negative"	2	1	608	5	3	"White68.jpg"	"Neg15.jpg"
1	1	2	1	5	"blackRight"	"posLeft"	1	2	1	"expBlockEval"	"Black_eyes_negative"	"Black"	"eyes"	"negative"	2	1	545	5	3	"Black26.jpg"	"Neg13.jpg"
1	1	2	1	5	"blackRight"	"posLeft"	1	2	2	"expBlockEval"	"Black_eyes_negative"	"Black"	"eyes"	"negative"	2	1	525	5	3	"Black27.jpg"	"Neg14.jpg"
1	1	2	1	5	"blackRight"	"posLeft"	1	2	3	"expBlockEval"	"White_forehead_negative"	"White"	"forehead"	"negative"	2	1	451	5	3	"White3.jpg"	"Neg10.jpg"
1	1	2	1	5	"blackRight"	"posLeft"	1	2	4	"expBlockEval"	"White_eyes_positive"	"White"	"eyes"	"positive"	2	1	591	5	3	"White8.jpg"	"Pos12.jpg"
1	1	2	1	5	"blackRight"	"posLeft"	1	2	5	"expBlockEval"	"White_eyes_negative"	"White"	"eyes"	"negative"	2	1	597	5	3	"White1.jpg"	"Neg15.jpg"
1	1	2	1	5	"blackRight"	"posLeft"	1	2	6	"expBlockEval"	"Black_forehead_negative"	"Black"	"forehead"	"negative"	2	1	426	5	3	"Black21.jpg"	"Neg14.jpg"
1	1	2	1	5	"blackRight"	"posLeft"	1	2	7	"expBlockEval"	"Black_forehead_positive"	"Black"	"forehead"	"positive"	2	1	687	5	3	"Black26.jpg"	"Pos14.jpg"
1	1	2	1	5	"blackRight"	"posLeft"	1	2	8	"expBlockEval"	"White_forehead_positive"	"White"	"forehead"	"positive"	2	1	563	5	3	"White41.jpg"	"Pos14.jpg"
1	1	2	1	5	"blackRight"	"posLeft"	1	2	9	"expBlockEval"	"Black_eyes_positive"	"Black"	"eyes"	"positive"	2	1	466	5	3	"Black26.jpg"	"Pos12.jpg"
1	1	2	1	5	"blackRight"	"posLeft"	1	2	10	"expBlockEval"	"White_eyes_positive"	"White"	"eyes"	"positive"	2	1	405	5	3	"White32.jpg"	"Pos14.jpg"
1	1	2	1	5	"blackRight"	"posLeft"	1	2	11	"expBlockEval"	"White_forehead_negative"	"White"	"forehead"	"negative"	3	0	0	5	3	"White33.jpg"	"Neg16.jpg"
1	1	2	1	5	"blackRight"	"posLeft"	1	2	12	"expBlockEval"	"Black_eyes_negative"	"Black"	"eyes"	"negative"	2	1	455	5	3	"Black21.jpg"	"Neg15.jpg"
1	1	2	1	5	"blackRight"	"posLeft"	1	2	13	"expBlockEval"	"White_forehead_positive"	"White"	"forehead"	"positive"	2	1	379	5	3	"White32.jpg"	"Pos11.jpg"
1	1	2	1	5	"blackRight"	"posLeft"	1	2	14	"expBlockEval"	"White_eyes_positive"	"White"	"eyes"	"positive"	2	1	440	5	3	"White41.jpg"	"Pos15.jpg"
1	1	2	1	5	"blackRight"	"posLeft"	1	2	15	"expBlockEval"	"White_eyes_negative"	"White"	"eyes"	"negative"	1	0	341	5	3	"White10.jpg"	"Neg9.jpg"
1	1	2	1	5	"blackRight"	"posLeft"	1	2	16	"expBlockEval"	"White_forehead_negative"	"White"	"forehead"	"negative"	2	1	514	5	3	"White34.jpg"	"Neg11.jpg"
1	1	2	1	5	"blackRight"	"posLeft"	1	2	17	"expBlockEval"	"Black_forehead_negative"	"Black"	"forehead"	"negative"	2	1	431	5	3	"Black16.jpg"	"Neg13.jpg"
1	1	2	1	5	"blackRight"	"posLeft"	1	2	18	"expBlockEval"	"White_eyes_negative"	"White"	"eyes"	"negative"	2	1	453	5	3	"White56.jpg"	"Neg10.jpg"
1	1	2	1	5	"blackRight"	"posLeft"	1	2	19	"expBlockEval"	"Black_forehead_negative"	"Black"	"forehead"	"negative"	2	1	402	5	3	"Black12.jpg"	"Neg9.jpg"
1	1	2	1	5	"blackRight"	"posLeft"	1	2	20	"expBlockEval"	"White_forehead_positive"	"White"	"forehead"	"positive"	2	1	511	5	3	"White34.jpg"	"Pos12.jpg"
1	1	2	1	5	"blackRight"	"posLeft"	1	2	21	"expBlockEval"	"White_forehead_positive"	"White"	"forehead"	"positive"	2	1	516	5	3	"White9.jpg"	"Pos13.jpg"
1	1	2	1	5	"blackRight"	"posLeft"	1	2	22	"expBlockEval"	"White_eyes_negative"	"White"	"eyes"	"negative"	2	1	480	5	3	"White30.jpg"	"Neg11.jpg"
1	1	2	1	5	"blackRight"	"posLeft"	1	2	23	"expBlockEval"	"Black_eyes_negative"	"Black"	"eyes"	"negative"	2	1	438	5	3	"Black15.jpg"	"Neg10.jpg"
1	1	2	1	5	"blackRight"	"posLeft"	1	2	24	"expBlockEval"	"White_eyes_negative"	"White"	"eyes"	"negative"	2	1	507	5	3	"White16.jpg"	"Neg13.jpg"
1	1	2	1	5	"blackRight"	"posLeft"	1	2	25	"expBlockEval"	"White_eyes_negative"	"White"	"eyes"	"negative"	2	1	440	5	3	"White41.jpg"	"Neg12.jpg"
1	1	2	1	5	"blackRight"	"posLeft"	1	2	26	"expBlockEval"	"White_forehead_negative"	"White"	"forehead"	"negative"	2	1	388	5	3	"White26.jpg"	"Neg14.jpg"
1	1	2	1	5	"blackRight"	"posLeft"	1	2	27	"expBlockEval"	"Black_forehead_negative"	"Black"	"forehead"	"negative"	2	1	498	5	3	"Black25.jpg"	"Neg10.jpg"
1	1	2	1	5	"blackRight"	"posLeft"	1	2	28	"expBlockEval"	"Black_forehead_negative"	"Black"	"forehead"	"negative"	2	1	455	5	3	"Black50.jpg"	"Neg15.jpg"
1	1	2	1	5	"blackRight"	"posLeft"	1	2	29	"expBlockEval"	"White_eyes_positive"	"White"	"eyes"	"positive"	2	1	516	5	3	"White17.jpg"	"Pos10.jpg"
1	1	2	1	5	"blackRight"	"posLeft"	1	2	30	"expBlockEval"	"White_forehead_negative"	"White"	"forehead"	"negative"	2	1	440	5	3	"White54.jpg"	"Neg9.jpg"
1	1	2	1	5	"blackRight"	"posLeft"	1	2	31	"expBlockEval"	"Black_forehead_positive"	"Black"	"forehead"	"positive"	2	1	502	5	3	"Black20.jpg"	"Pos15.jpg"
1	1	2	1	5	"blackRight"	"posLeft"	1	2	32	"expBlockEval"	"Black_forehead_positive"	"Black"	"forehead"	"positive"	2	1	555	5	3	"Black24.jpg"	"Pos13.jpg"
1	1	2	1	5	"blackRight"	"posLeft"	1	2	33	"expBlockEval"	"Black_forehead_positive"	"Black"	"forehead"	"positive"	2	1	640	5	3	"Black13.jpg"	"Pos9.jpg"
1	1	2	1	5	"blackRight"	"posLeft"	1	2	34	"expBlockEval"	"Black_eyes_negative"	"Black"	"eyes"	"negative"	2	1	445	5	3	"Black51.jpg"	"Neg11.jpg"
1	1	2	1	5	"blackRight"	"posLeft"	1	2	35	"expBlockEval"	"White_forehead_negative"	"White"	"forehead"	"negative"	2	1	562	5	3	"White57.jpg"	"Neg12.jpg"
1	1	2	1	5	"blackRight"	"posLeft"	1	2	36	"expBlockEval"	"White_forehead_positive"	"White"	"forehead"	"positive"	2	1	463	5	3	"White10.jpg"	"Pos15.jpg"
1	1	2	1	5	"blackRight"	"posLeft"	1	2	37	"expBlockEval"	"Black_forehead_negative"	"Black"	"forehead"	"negative"	2	1	508	5	3	"Black17.jpg"	"Neg11.jpg"
1	1	2	1	5	"blackRight"	"posLeft"	1	2	38	"expBlockEval"	"Black_eyes_negative"	"Black"	"eyes"	"negative"	2	1	497	5	3	"Black33.jpg"	"Neg12.jpg"
1	1	2	1	5	"blackRight"	"posLeft"	1	2	39	"expBlockEval"	"White_forehead_positive"	"White"	"forehead"	"positive"	2	1	421	5	3	"White18.jpg"	"Pos10.jpg"
1	1	2	1	5	"blackRight"	"posLeft"	1	2	40	"expBlockEval"	"Black_forehead_positive"	"Black"	"forehead"	"positive"	2	1	595	5	3	"Black8.jpg"	"Pos11.jpg"
1	1	2	1	5	"blackRight"	"posLeft"	1	2	41	"expBlockEval"	"Black_eyes_positive"	"Black"	"eyes"	"positive"	2	1	583	5	3	"Black3.jpg"	"Pos11.jpg"
1	1	2	1	5	"blackRight"	"posLeft"	1	2	42	"expBlockEval"	"White_forehead_negative"	"White"	"forehead"	"negative"	2	1	556	5	3	"White18.jpg"	"Neg13.jpg"
1	1	2	1	5	"blackRight"	"posLeft"	1	2	43	"expBlockEval"	"White_eyes_negative"	"White"	"eyes"	"negative"	2	1	545	5	3	"White34.jpg"	"Neg14.jpg"
1	1	2	1	5	"blackRight"	"posLeft"	1	2	44	"expBlockEval"	"Black_eyes_positive"	"Black"	"eyes"	"positive"	2	1	575	5	3	"Black36.jpg"	"Pos14.jpg"
1	1	2	1	5	"blackRight"	"posLeft"	1	2	45	"expBlockEval"	"Black_eyes_positive"	"Black"	"eyes"	"positive"	2	1	596	5	3	"Black29.jpg"	"Pos13.jpg"
1	1	2	1	5	"blackRight"	"posLeft"	1	2	46	"expBlockEval"	"White_forehead_positive"	"White"	"forehead"	"positive"	2	1	665	5	3	"White26.jpg"	"Pos9.jpg"
1	1	2	1	5	"blackRight"	"posLeft"	1	2	47	"expBlockEval"	"Black_eyes_negative"	"Black"	"eyes"	"negative"	2	1	527	5	3	"Black29.jpg"	"Neg9.jpg"
1	1	2	1	5	"blackRight"	"posLeft"	1	2	48	"expBlockEval"	"Black_forehead_positive"	"Black"	"forehead"	"positive"	2	1	436	5	3	"Black9.jpg"	"Pos12.jpg"
1	1	2	1	5	"blackRight"	"posLeft"	1	2	49	"expBlockEval"	"White_forehead_negative"	"White"	"forehead"	"negative"	2	1	519	5	3	"White31.jpg"	"Neg15.jpg"
1	1	2	1	5	"blackRight"	"posLeft"	1	2	50	"expBlockEval"	"White_eyes_positive"	"White"	"eyes"	"positive"	2	1	508	5	3	"White6.jpg"	"Pos9.jpg"
1	1	2	1	5	"blackRight"	"posLeft"	1	2	51	"expBlockEval"	"Black_forehead_negative"	"Black"	"forehead"	"negative"	2	1	457	5	3	"Black22.jpg"	"Neg16.jpg"
1	1	2	1	5	"blackRight"	"posLeft"	1	2	52	"expBlockEval"	"Black_eyes_positive"	"Black"	"eyes"	"positive"	2	1	550	5	3	"Black39.jpg"	"Pos9.jpg"
1	1	2	1	5	"blackRight"	"posLeft"	1	2	53	"expBlockEval"	"Black_eyes_positive"	"Black"	"eyes"	"positive"	2	1	491	5	3	"Black13.jpg"	"Pos15.jpg"
1	1	2	1	5	"blackRight"	"posLeft"	1	2	54	"expBlockEval"	"White_forehead_negative"	"White"	"forehead"	"negative"	2	1	425	5	3	"White6.jpg"	"Neg13.jpg"
1	1	2	1	5	"blackRight"	"posLeft"	1	2	55	"expBlockEval"	"Black_eyes_negative"	"Black"	"eyes"	"negative"	2	1	511	5	3	"Black1.jpg"	"Neg16.jpg"
1	1	2	1	5	"blackRight"	"posLeft"	1	2	56	"expBlockEval"	"White_forehead_negative"	"White"	"forehead"	"negative"	2	1	459	5	3	"White24.jpg"	"Neg12.jpg"
1	1	2	1	5	"blackRight"	"posLeft"	1	2	57	"expBlockEval"	"Black_forehead_negative"	"Black"	"forehead"	"negative"	2	1	639	5	3	"Black2.jpg"	"Neg12.jpg"
1	1	2	1	5	"blackRight"	"posLeft"	1	2	58	"expBlockEval"	"Black_forehead_negative"	"Black"	"forehead"	"negative"	2	1	404	5	3	"Black33.jpg"	"Neg9.jpg"
1	1	2	1	5	"blackRight"	"posLeft"	1	2	59	"expBlockEval"	"Black_eyes_negative"	"Black"	"eyes"	"negative"	2	1	529	5	3	"Black20.jpg"	"Neg13.jpg"
1	1	2	1	5	"blackRight"	"posLeft"	1	2	60	"expBlockEval"	"White_forehead_positive"	"White"	"forehead"	"positive"	2	1	486	5	3	"White56.jpg"	"Pos16.jpg"
1	1	2	1	5	"blackRight"	"posLeft"	1	2	61	"expBlockEval"	"White_forehead_negative"	"White"	"forehead"	"negative"	2	1	435	5	3	"White21.jpg"	"Neg14.jpg"
1	1	2	1	5	"blackRight"	"posLeft"	1	2	62	"expBlockEval"	"White_eyes_negative"	"White"	"eyes"	"negative"	2	1	567	5	3	"White54.jpg"	"Neg16.jpg"
1	1	2	1	5	"blackRight"	"posLeft"	1	2	63	"expBlockEval"	"White_eyes_positive"	"White"	"eyes"	"positive"	2	1	540	5	3	"White33.jpg"	"Pos13.jpg"
1	1	2	1	5	"blackRight"	"posLeft"	1	2	64	"expBlockEval"	"Black_eyes_negative"	"Black"	"eyes"	"negative"	2	1	497	5	3	"Black3.jpg"	"Neg15.jpg"
1	1	2	1	5	"blackRight"	"posLeft"	1	2	65	"expBlockEval"	"White_forehead_positive"	"White"	"forehead"	"positive"	2	1	566	5	3	"White11.jpg"	"Pos14.jpg"
1	1	2	1	5	"blackRight"	"posLeft"	1	2	66	"expBlockEval"	"White_forehead_positive"	"White"	"forehead"	"positive"	2	1	546	5	3	"White14.jpg"	"Pos9.jpg"
1	1	2	1	5	"blackRight"	"posLeft"	1	2	67	"expBlockEval"	"White_eyes_negative"	"White"	"eyes"	"negative"	2	1	520	5	3	"White9.jpg"	"Neg9.jpg"
1	1	2	1	5	"blackRight"	"posLeft"	1	2	68	"expBlockEval"	"Black_eyes_positive"	"Black"	"eyes"	"positive"	2	1	525	5	3	"Black17.jpg"	"Pos10.jpg"
1	1	2	1	5	"blackRight"	"posLeft"	1	2	69	"expBlockEval"	"Black_forehead_positive"	"Black"	"forehead"	"positive"	2	1	530	5	3	"Black7.jpg"	"Pos10.jpg"
1	1	2	1	5	"blackRight"	"posLeft"	1	2	70	"expBlockEval"	"White_forehead_negative"	"White"	"forehead"	"negative"	2	1	711	5	3	"White38.jpg"	"Neg9.jpg"
1	1	2	1	5	"blackRight"	"posLeft"	1	2	71	"expBlockEval"	"Black_forehead_positive"	"Black"	"forehead"	"positive"	2	1	484	5	3	"Black11.jpg"	"Pos16.jpg"
1	1	2	1	5	"blackRight"	"posLeft"	1	2	72	"expBlockEval"	"Black_forehead_positive"	"Black"	"forehead"	"positive"	2	1	506	5	3	"Black27.jpg"	"Pos11.jpg"
1	1	2	1	5	"blackRight"	"posLeft"	1	2	73	"expBlockEval"	"White_eyes_negative"	"White"	"eyes"	"negative"	2	1	503	5	3	"White35.jpg"	"Neg10.jpg"
1	1	2	1	5	"blackRight"	"posLeft"	1	2	74	"expBlockEval"	"White_eyes_positive"	"White"	"eyes"	"positive"	3	0	0	5	3	"White14.jpg"	"Pos11.jpg"
1	1	2	1	5	"blackRight"	"posLeft"	1	2	75	"expBlockEval"	"Black_eyes_positive"	"Black"	"eyes"	"positive"	2	1	418	5	3	"Black32.jpg"	"Pos16.jpg"
1	1	2	1	5	"blackRight"	"posLeft"	1	2	76	"expBlockEval"	"Black_forehead_negative"	"Black"	"forehead"	"negative"	2	1	447	5	3	"Black26.jpg"	"Neg14.jpg"
1	1	2	1	5	"blackRight"	"posLeft"	1	2	77	"expBlockEval"	"Black_eyes_positive"	"Black"	"eyes"	"positive"	2	1	580	5	3	"Black25.jpg"	"Pos11.jpg"
1	1	2	1	5	"blackRight"	"posLeft"	1	2	78	"expBlockEval"	"White_forehead_negative"	"White"	"forehead"	"negative"	2	1	465	5	3	"White11.jpg"	"Neg11.jpg"
1	1	2	1	5	"blackRight"	"posLeft"	1	2	79	"expBlockEval"	"Black_forehead_negative"	"Black"	"forehead"	"negative"	1	0	766	5	3	"Black40.jpg"	"Neg13.jpg"
1	1	2	1	5	"blackRight"	"posLeft"	1	2	80	"expBlockEval"	"White_forehead_negative"	"White"	"forehead"	"negative"	2	1	483	5	3	"White14.jpg"	"Neg15.jpg"
1	1	2	1	5	"blackRight"	"posLeft"	1	2	81	"expBlockEval"	"Black_eyes_negative"	"Black"	"eyes"	"negative"	2	1	488	5	3	"Black12.jpg"	"Neg16.jpg"
1	1	2	1	5	"blackRight"	"posLeft"	1	2	82	"expBlockEval"	"White_forehead_positive"	"White"	"forehead"	"positive"	2	1	493	5	3	"White6.jpg"	"Pos13.jpg"
1	1	2	1	5	"blackRight"	"posLeft"	1	2	83	"expBlockEval"	"White_forehead_negative"	"White"	"forehead"	"negative"	2	1	506	5	3	"White20.jpg"	"Neg10.jpg"
1	1	2	1	5	"blackRight"	"posLeft"	1	2	84	"expBlockEval"	"White_forehead_positive"	"White"	"forehead"	"positive"	2	1	527	5	3	"White3.jpg"	"Pos15.jpg"
1	1	2	1	5	"blackRight"	"posLeft"	1	2	85	"expBlockEval"	"Black_forehead_positive"	"Black"	"forehead"	"positive"	2	1	532	5	3	"Black21.jpg"	"Pos15.jpg"
1	1	2	1	5	"blackRight"	"posLeft"	1	2	86	"expBlockEval"	"Black_forehead_positive"	"Black"	"forehead"	"positive"	2	1	521	5	3	"Black40.jpg"	"Pos16.jpg"
1	1	2	1	5	"blackRight"	"posLeft"	1	2	87	"expBlockEval"	"White_eyes_negative"	"White"	"eyes"	"negative"	2	1	415	5	3	"White57.jpg"	"Neg11.jpg"
1	1	2	1	5	"blackRight"	"posLeft"	1	2	88	"expBlockEval"	"Black_forehead_negative"	"Black"	"forehead"	"negative"	2	1	548	5	3	"Black36.jpg"	"Neg11.jpg"
1	1	2	1	5	"blackRight"	"posLeft"	1	2	89	"expBlockEval"	"White_eyes_positive"	"White"	"eyes"	"positive"	2	1	481	5	3	"White23.jpg"	"Pos16.jpg"
1	1	2	1	5	"blackRight"	"posLeft"	1	2	90	"expBlockEval"	"Black_eyes_positive"	"Black"	"eyes"	"positive"	2	1	486	5	3	"Black11.jpg"	"Pos14.jpg"
1	1	2	1	5	"blackRight"	"posLeft"	1	2	91	"expBlockEval"	"Black_forehead_negative"	"Black"	"forehead"	"negative"	2	1	587	5	3	"Black51.jpg"	"Neg15.jpg"
1	1	2	1	5	"blackRight"	"posLeft"	1	2	92	"expBlockEval"	"White_eyes_negative"	"White"	"eyes"	"negative"	2	1	472	5	3	"White17.jpg"	"Neg15.jpg"
1	1	2	1	5	"blackRight"	"posLeft"	1	2	93	"expBlockEval"	"White_eyes_positive"	"White"	"eyes"	"positive"	2	1	508	5	3	"White57.jpg"	"Pos13.jpg"
1	1	2	1	5	"blackRight"	"posLeft"	1	2	94	"expBlockEval"	"Black_forehead_positive"	"Black"	"forehead"	"positive"	2	1	489	5	3	"Black25.jpg"	"Pos10.jpg"
1	1	2	1	5	"blackRight"	"posLeft"	1	2	95	"expBlockEval"	"White_forehead_positive"	"White"	"forehead"	"positive"	2	1	462	5	3	"White35.jpg"	"Pos10.jpg"
1	1	2	1	5	"blackRight"	"posLeft"	1	2	96	"expBlockEval"	"Black_forehead_positive"	"Black"	"forehead"	"positive"	2	1	514	5	3	"Black39.jpg"	"Pos13.jpg"
1	1	2	1	5	"blackRight"	"posLeft"	1	2	97	"expBlockEval"	"White_forehead_positive"	"White"	"forehead"	"positive"	2	1	685	5	3	"White12.jpg"	"Pos12.jpg"
1	1	2	1	5	"blackRight"	"posLeft"	1	2	98	"expBlockEval"	"Black_forehead_negative"	"Black"	"forehead"	"negative"	2	1	491	5	3	"Black7.jpg"	"Neg10.jpg"
1	1	2	1	5	"blackRight"	"posLeft"	1	2	99	"expBlockEval"	"White_eyes_positive"	"White"	"eyes"	"positive"	2	1	568	5	3	"White26.jpg"	"Pos10.jpg"
1	1	2	1	5	"blackRight"	"posLeft"	1	2	100	"expBlockEval"	"Black_eyes_positive"	"Black"	"eyes"	"positive"	2	1	485	5	3	"Black22.jpg"	"Pos13.jpg"
1	1	2	1	5	"blackRight"	"posLeft"	1	2	101	"expBlockEval"	"Black_forehead_negative"	"Black"	"forehead"	"negative"	3	0	0	5	3	"Black20.jpg"	"Neg16.jpg"
1	1	2	1	5	"blackRight"	"posLeft"	1	2	102	"expBlockEval"	"Black_forehead_positive"	"Black"	"forehead"	"positive"	2	1	497	5	3	"Black5.jpg"	"Pos14.jpg"
1	1	2	1	5	"blackRight"	"posLeft"	1	2	103	"expBlockEval"	"White_forehead_positive"	"White"	"forehead"	"positive"	2	1	725	5	3	"White29.jpg"	"Pos16.jpg"
1	1	2	1	5	"blackRight"	"posLeft"	1	2	104	"expBlockEval"	"White_eyes_negative"	"White"	"eyes"	"negative"	2	1	610	5	3	"White11.jpg"	"Neg14.jpg"
1	1	2	1	5	"blackRight"	"posLeft"	1	2	105	"expBlockEval"	"White_forehead_positive"	"White"	"forehead"	"positive"	2	1	583	5	3	"White1.jpg"	"Pos11.jpg"
1	1	2	1	5	"blackRight"	"posLeft"	1	2	106	"expBlockEval"	"Black_eyes_positive"	"Black"	"eyes"	"positive"	2	1	453	5	3	"Black23.jpg"	"Pos9.jpg"
1	1	2	1	5	"blackRight"	"posLeft"	1	2	107	"expBlockEval"	"Black_eyes_negative"	"Black"	"eyes"	"negative"	2	1	457	5	3	"Black25.jpg"	"Neg12.jpg"
1	1	2	1	5	"blackRight"	"posLeft"	1	2	108	"expBlockEval"	"White_forehead_negative"	"White"	"forehead"	"negative"	2	1	486	5	3	"White2.jpg"	"Neg16.jpg"
1	1	2	1	5	"blackRight"	"posLeft"	1	2	109	"expBlockEval"	"Black_forehead_negative"	"Black"	"forehead"	"negative"	2	1	419	5	3	"Black39.jpg"	"Neg12.jpg"
1	1	2	1	5	"blackRight"	"posLeft"	1	2	110	"expBlockEval"	"Black_forehead_negative"	"Black"	"forehead"	"negative"	2	1	471	5	3	"Black24.jpg"	"Neg13.jpg"
1	1	2	1	5	"blackRight"	"posLeft"	1	2	111	"expBlockEval"	"White_eyes_negative"	"White"	"eyes"	"negative"	2	1	532	5	3	"White20.jpg"	"Neg12.jpg"
1	1	2	1	5	"blackRight"	"posLeft"	1	2	112	"expBlockEval"	"White_eyes_negative"	"White"	"eyes"	"negative"	2	1	402	5	3	"White14.jpg"	"Neg16.jpg"
1	1	2	1	5	"blackRight"	"posLeft"	1	2	113	"expBlockEval"	"White_eyes_negative"	"White"	"eyes"	"negative"	2	1	462	5	3	"White22.jpg"	"Neg13.jpg"
1	1	2	1	5	"blackRight"	"posLeft"	1	2	114	"expBlockEval"	"Black_eyes_positive"	"Black"	"eyes"	"positive"	2	1	468	5	3	"Black21.jpg"	"Pos10.jpg"
1	1	2	1	5	"blackRight"	"posLeft"	1	2	115	"expBlockEval"	"Black_eyes_positive"	"Black"	"eyes"	"positive"	2	1	592	5	3	"Black15.jpg"	"Pos16.jpg"
1	1	2	1	5	"blackRight"	"posLeft"	1	2	116	"expBlockEval"	"Black_eyes_positive"	"Black"	"eyes"	"positive"	2	1	534	5	3	"Black6.jpg"	"Pos15.jpg"
1	1	2	1	5	"blackRight"	"posLeft"	1	2	117	"expBlockEval"	"Black_eyes_negative"	"Black"	"eyes"	"negative"	2	1	610	5	3	"Black8.jpg"	"Neg14.jpg"
1	1	2	1	5	"blackRight"	"posLeft"	1	2	118	"expBlockEval"	"White_eyes_positive"	"White"	"eyes"	"positive"	3	0	0	5	3	"White5.jpg"	"Pos9.jpg"
1	1	2	1	5	"blackRight"	"posLeft"	1	2	119	"expBlockEval"	"White_eyes_negative"	"White"	"eyes"	"negative"	2	1	468	5	3	"White18.jpg"	"Neg15.jpg"
1	1	2	1	5	"blackRight"	"posLeft"	1	2	120	"expBlockEval"	"White_forehead_negative"	"White"	"forehead"	"negative"	2	1	496	5	3	"White23.jpg"	"Neg14.jpg"
1	1	2	1	5	"blackRight"	"posLeft"	1	2	121	"expBlockEval"	"White_forehead_positive"	"White"	"forehead"	"positive"	2	1	573	5	3	"White31.jpg"	"Pos13.jpg"
1	1	2	1	5	"blackRight"	"posLeft"	1	2	122	"expBlockEval"	"Black_eyes_negative"	"Black"	"eyes"	"negative"	2	1	522	5	3	"Black40.jpg"	"Neg11.jpg"
1	1	2	1	5	"blackRight"	"posLeft"	1	2	123	"expBlockEval"	"Black_eyes_negative"	"Black"	"eyes"	"negative"	2	1	566	5	3	"Black31.jpg"	"Neg9.jpg"
1	1	2	1	5	"blackRight"	"posLeft"	1	2	124	"expBlockEval"	"Black_forehead_negative"	"Black"	"forehead"	"negative"	2	1	579	5	3	"Black29.jpg"	"Neg14.jpg"
1	1	2	1	5	"blackRight"	"posLeft"	1	2	125	"expBlockEval"	"Black_forehead_negative"	"Black"	"forehead"	"negative"	2	1	480	5	3	"Black5.jpg"	"Neg12.jpg"
1	1	2	1	5	"blackRight"	"posLeft"	1	2	126	"expBlockEval"	"Black_forehead_positive"	"Black"	"forehead"	"positive"	1	0	333	5	3	"Black15.jpg"	"Pos9.jpg"
1	1	2	1	5	"blackRight"	"posLeft"	1	2	127	"expBlockEval"	"Black_eyes_negative"	"Black"	"eyes"	"negative"	2	1	522	5	3	"Black39.jpg"	"Neg10.jpg"
1	1	2	1	5	"blackRight"	"posLeft"	1	2	128	"expBlockEval"	"White_forehead_negative"	"White"	"forehead"	"negative"	2	1	535	5	3	"White22.jpg"	"Neg16.jpg"
1	1	2	1	5	"blackRight"	"posLeft"	1	2	129	"expBlockEval"	"White_forehead_positive"	"White"	"forehead"	"positive"	2	1	654	5	3	"White20.jpg"	"Pos11.jpg"
1	1	2	1	5	"blackRight"	"posLeft"	1	2	130	"expBlockEval"	"Black_forehead_positive"	"Black"	"forehead"	"positive"	2	1	563	5	3	"Black6.jpg"	"Pos12.jpg"
1	1	2	1	5	"blackRight"	"posLeft"	1	2	131	"expBlockEval"	"Black_eyes_negative"	"Black"	"eyes"	"negative"	2	1	544	5	3	"Black32.jpg"	"Neg11.jpg"
1	1	2	1	5	"blackRight"	"posLeft"	1	2	132	"expBlockEval"	"Black_forehead_negative"	"Black"	"forehead"	"negative"	2	1	597	5	3	"Black10.jpg"	"Neg9.jpg"
1	1	2	1	5	"blackRight"	"posLeft"	1	2	133	"expBlockEval"	"White_forehead_negative"	"White"	"forehead"	"negative"	2	1	409	5	3	"White12.jpg"	"Neg11.jpg"
1	1	2	1	5	"blackRight"	"posLeft"	1	2	134	"expBlockEval"	"Black_eyes_negative"	"Black"	"eyes"	"negative"	2	1	478	5	3	"Black16.jpg"	"Neg15.jpg"
1	1	2	1	5	"blackRight"	"posLeft"	1	2	135	"expBlockEval"	"White_forehead_positive"	"White"	"forehead"	"positive"	2	1	658	5	3	"White54.jpg"	"Pos14.jpg"
1	1	2	1	5	"blackRight"	"posLeft"	1	2	136	"expBlockEval"	"White_forehead_positive"	"White"	"forehead"	"positive"	2	1	527	5	3	"White8.jpg"	"Pos9.jpg"
1	1	2	1	5	"blackRight"	"posLeft"	1	2	137	"expBlockEval"	"White_eyes_negative"	"White"	"eyes"	"negative"	2	1	532	5	3	"White21.jpg"	"Neg14.jpg"
1	1	2	1	5	"blackRight"	"posLeft"	1	2	138	"expBlockEval"	"Black_forehead_negative"	"Black"	"forehead"	"negative"	2	1	506	5	3	"Black31.jpg"	"Neg11.jpg"
1	1	2	1	5	"blackRight"	"posLeft"	1	2	139	"expBlockEval"	"White_forehead_positive"	"White"	"forehead"	"positive"	2	1	503	5	3	"White5.jpg"	"Pos15.jpg"
1	1	2	1	5	"blackRight"	"posLeft"	1	2	140	"expBlockEval"	"Black_eyes_positive"	"Black"	"eyes"	"positive"	2	1	548	5	3	"Black8.jpg"	"Pos12.jpg"
1	1	2	1	5	"blackRight"	"posLeft"	1	2	141	"expBlockEval"	"White_eyes_negative"	"White"	"eyes"	"negative"	2	1	505	5	3	"White24.jpg"	"Neg10.jpg"
1	1	2	1	5	"blackRight"	"posLeft"	1	2	142	"expBlockEval"	"White_forehead_positive"	"White"	"forehead"	"positive"	2	1	518	5	3	"White16.jpg"	"Pos16.jpg"
1	1	2	1	5	"blackRight"	"posLeft"	1	2	143	"expBlockEval"	"White_forehead_positive"	"White"	"forehead"	"positive"	2	1	610	5	3	"White21.jpg"	"Pos10.jpg"
1	1	2	1	5	"blackRight"	"posLeft"	1	2	144	"expBlockEval"	"White_forehead_negative"	"White"	"forehead"	"negative"	2	1	431	5	3	"White41.jpg"	"Neg12.jpg"
1	1	2	1	5	"blackRight"	"posLeft"	1	2	145	"expBlockEval"	"White_eyes_positive"	"White"	"eyes"	"positive"	2	1	628	5	3	"White20.jpg"	"Pos15.jpg"
1	1	2	1	5	"blackRight"	"posLeft"	1	2	146	"expBlockEval"	"Black_forehead_positive"	"Black"	"forehead"	"positive"	1	0	394	5	3	"Black32.jpg"	"Pos16.jpg"
1	1	2	1	5	"blackRight"	"posLeft"	1	2	147	"expBlockEval"	"Black_eyes_positive"	"Black"	"eyes"	"positive"	2	1	447	5	3	"Black20.jpg"	"Pos14.jpg"
1	1	2	1	5	"blackRight"	"posLeft"	1	2	148	"expBlockEval"	"White_forehead_negative"	"White"	"forehead"	"negative"	2	1	435	5	3	"White5.jpg"	"Neg15.jpg"
1	1	2	1	5	"blackRight"	"posLeft"	1	2	149	"expBlockEval"	"Black_forehead_negative"	"Black"	"forehead"	"negative"	2	1	617	5	3	"Black23.jpg"	"Neg16.jpg"
1	1	2	1	5	"blackRight"	"posLeft"	1	2	150	"expBlockEval"	"White_eyes_positive"	"White"	"eyes"	"positive"	1	0	462	5	3	"White1.jpg"	"Pos14.jpg"
1	1	2	1	5	"blackRight"	"posLeft"	1	2	151	"expBlockEval"	"Black_forehead_negative"	"Black"	"forehead"	"negative"	2	1	524	5	3	"Black1.jpg"	"Neg15.jpg"
1	1	2	1	5	"blackRight"	"posLeft"	1	2	152	"expBlockEval"	"White_eyes_positive"	"White"	"eyes"	"positive"	2	1	536	5	3	"White11.jpg"	"Pos12.jpg"
1	1	2	1	5	"blackRight"	"posLeft"	1	2	153	"expBlockEval"	"Black_forehead_positive"	"Black"	"forehead"	"positive"	2	1	438	5	3	"Black51.jpg"	"Pos14.jpg"
1	1	2	1	5	"blackRight"	"posLeft"	1	2	154	"expBlockEval"	"White_eyes_positive"	"White"	"eyes"	"positive"	2	1	459	5	3	"White54.jpg"	"Pos16.jpg"
1	1	2	1	5	"blackRight"	"posLeft"	1	2	155	"expBlockEval"	"White_eyes_negative"	"White"	"eyes"	"negative"	2	1	504	5	3	"White8.jpg"	"Neg9.jpg"
1	1	2	1	5	"blackRight"	"posLeft"	1	2	156	"expBlockEval"	"Black_eyes_negative"	"Black"	"eyes"	"negative"	2	1	573	5	3	"Black22.jpg"	"Neg14.jpg"
1	1	2	1	5	"blackRight"	"posLeft"	1	2	157	"expBlockEval"	"Black_eyes_negative"	"Black"	"eyes"	"negative"	2	1	523	5	3	"Black10.jpg"	"Neg13.jpg"
1	1	2	1	5	"blackRight"	"posLeft"	1	2	158	"expBlockEval"	"White_forehead_positive"	"White"	"forehead"	"positive"	2	1	575	5	3	"White38.jpg"	"Pos12.jpg"
1	1	2	1	5	"blackRight"	"posLeft"	1	2	159	"expBlockEval"	"Black_forehead_positive"	"Black"	"forehead"	"positive"	2	1	596	5	3	"Black50.jpg"	"Pos10.jpg"
1	1	2	1	5	"blackRight"	"posLeft"	1	2	160	"expBlockEval"	"Black_eyes_negative"	"Black"	"eyes"	"negative"	2	1	465	5	3	"Black17.jpg"	"Neg9.jpg"
1	1	2	1	5	"blackRight"	"posLeft"	1	2	161	"expBlockEval"	"White_eyes_negative"	"White"	"eyes"	"negative"	2	1	461	5	3	"White3.jpg"	"Neg16.jpg"
1	1	2	1	5	"blackRight"	"posLeft"	1	2	162	"expBlockEval"	"Black_forehead_positive"	"Black"	"forehead"	"positive"	2	1	602	5	3	"Black3.jpg"	"Pos15.jpg"
1	1	2	1	5	"blackRight"	"posLeft"	1	2	163	"expBlockEval"	"Black_eyes_positive"	"Black"	"eyes"	"positive"	3	0	0	5	3	"Black27.jpg"	"Pos10.jpg"
1	1	2	1	5	"blackRight"	"posLeft"	1	2	164	"expBlockEval"	"White_forehead_negative"	"White"	"forehead"	"negative"	2	1	420	5	3	"White56.jpg"	"Neg13.jpg"
1	1	2	1	5	"blackRight"	"posLeft"	1	2	165	"expBlockEval"	"Black_eyes_negative"	"Black"	"eyes"	"negative"	2	1	432	5	3	"Black13.jpg"	"Neg16.jpg"
1	1	2	1	5	"blackRight"	"posLeft"	1	2	166	"expBlockEval"	"Black_eyes_positive"	"Black"	"eyes"	"positive"	2	1	509	5	3	"Black2.jpg"	"Pos13.jpg"
1	1	2	1	5	"blackRight"	"posLeft"	1	2	167	"expBlockEval"	"White_forehead_positive"	"White"	"forehead"	"positive"	2	1	426	5	3	"White2.jpg"	"Pos9.jpg"
1	1	2	1	5	"blackRight"	"posLeft"	1	2	168	"expBlockEval"	"Black_forehead_positive"	"Black"	"forehead"	"positive"	2	1	583	5	3	"Black33.jpg"	"Pos12.jpg"
1	1	2	1	5	"blackRight"	"posLeft"	1	2	169	"expBlockEval"	"White_eyes_positive"	"White"	"eyes"	"positive"	2	1	540	5	3	"White2.jpg"	"Pos11.jpg"
1	1	2	1	5	"blackRight"	"posLeft"	1	2	170	"expBlockEval"	"Black_forehead_negative"	"Black"	"forehead"	"negative"	2	1	561	5	3	"Black27.jpg"	"Neg10.jpg"
1	1	2	1	5	"blackRight"	"posLeft"	1	2	171	"expBlockEval"	"White_forehead_positive"	"White"	"forehead"	"positive"	2	1	549	5	3	"White24.jpg"	"Pos16.jpg"
1	1	2	1	5	"blackRight"	"posLeft"	1	2	172	"expBlockEval"	"Black_forehead_negative"	"Black"	"forehead"	"negative"	2	1	571	5	3	"Black9.jpg"	"Neg15.jpg"
1	1	2	1	5	"blackRight"	"posLeft"	1	2	173	"expBlockEval"	"White_eyes_negative"	"White"	"eyes"	"negative"	2	1	599	5	3	"White31.jpg"	"Neg11.jpg"
1	1	2	1	5	"blackRight"	"posLeft"	1	2	174	"expBlockEval"	"Black_eyes_positive"	"Black"	"eyes"	"positive"	2	1	580	5	3	"Black51.jpg"	"Pos15.jpg"
1	1	2	1	5	"blackRight"	"posLeft"	1	2	175	"expBlockEval"	"Black_eyes_positive"	"Black"	"eyes"	"positive"	2	1	513	5	3	"Black33.jpg"	"Pos12.jpg"
1	1	2	1	5	"blackRight"	"posLeft"	1	2	176	"expBlockEval"	"Black_forehead_positive"	"Black"	"forehead"	"positive"	2	1	415	5	3	"Black10.jpg"	"Pos11.jpg"
1	1	2	1	5	"blackRight"	"posLeft"	1	2	177	"expBlockEval"	"White_forehead_positive"	"White"	"forehead"	"positive"	2	1	443	5	3	"White17.jpg"	"Pos15.jpg"
1	1	2	1	5	"blackRight"	"posLeft"	1	2	178	"expBlockEval"	"White_forehead_positive"	"White"	"forehead"	"positive"	2	1	376	5	3	"White33.jpg"	"Pos12.jpg"
1	1	2	1	5	"blackRight"	"posLeft"	1	2	179	"expBlockEval"	"Black_forehead_positive"	"Black"	"forehead"	"positive"	2	1	421	5	3	"Black29.jpg"	"Pos9.jpg"
1	1	2	1	5	"blackRight"	"posLeft"	1	2	180	"expBlockEval"	"White_eyes_positive"	"White"	"eyes"	"positive"	2	1	418	5	3	"White10.jpg"	"Pos15.jpg"
1	1	2	1	5	"blackRight"	"posLeft"	1	2	181	"expBlockEval"	"Black_eyes_positive"	"Black"	"eyes"	"positive"	2	1	431	5	3	"Black7.jpg"	"Pos11.jpg"
1	1	2	1	5	"blackRight"	"posLeft"	1	2	182	"expBlockEval"	"Black_forehead_negative"	"Black"	"forehead"	"negative"	2	1	556	5	3	"Black8.jpg"	"Neg13.jpg"
1	1	2	1	5	"blackRight"	"posLeft"	1	2	183	"expBlockEval"	"Black_forehead_positive"	"Black"	"forehead"	"positive"	2	1	489	5	3	"Black22.jpg"	"Pos13.jpg"
1	1	2	1	5	"blackRight"	"posLeft"	1	2	184	"expBlockEval"	"Black_forehead_negative"	"Black"	"forehead"	"negative"	2	1	519	5	3	"Black11.jpg"	"Neg14.jpg"
1	1	2	1	5	"blackRight"	"posLeft"	1	2	185	"expBlockEval"	"Black_forehead_negative"	"Black"	"forehead"	"negative"	2	1	507	5	3	"Black32.jpg"	"Neg10.jpg"
1	1	2	1	5	"blackRight"	"posLeft"	1	2	186	"expBlockEval"	"White_forehead_negative"	"White"	"forehead"	"negative"	2	1	584	5	3	"White9.jpg"	"Neg10.jpg"
1	1	2	1	5	"blackRight"	"posLeft"	1	2	187	"expBlockEval"	"White_forehead_positive"	"White"	"forehead"	"positive"	2	1	612	5	3	"White22.jpg"	"Pos11.jpg"
1	1	2	1	5	"blackRight"	"posLeft"	1	2	188	"expBlockEval"	"White_eyes_positive"	"White"	"eyes"	"positive"	2	1	521	5	3	"White29.jpg"	"Pos10.jpg"
1	1	2	1	5	"blackRight"	"posLeft"	1	2	189	"expBlockEval"	"White_forehead_negative"	"White"	"forehead"	"negative"	3	0	0	5	3	"White29.jpg"	"Neg9.jpg"
1	1	2	1	5	"blackRight"	"posLeft"	1	2	190	"expBlockEval"	"Black_eyes_negative"	"Black"	"eyes"	"negative"	2	1	538	5	3	"Black7.jpg"	"Neg12.jpg"
1	1	2	1	5	"blackRight"	"posLeft"	1	2	191	"expBlockEval"	"Black_eyes_positive"	"Black"	"eyes"	"positive"	2	1	463	5	3	"Black5.jpg"	"Pos16.jpg"
1	1	2	1	5	"blackRight"	"posLeft"	1	2	192	"expBlockEval"	"Black_eyes_positive"	"Black"	"eyes"	"positive"	2	1	468	5	3	"Black40.jpg"	"Pos9.jpg"
1	1	2	1	5	"blackRight"	"posLeft"	1	2	193	"expBlockEval"	"White_forehead_negative"	"White"	"forehead"	"negative"	2	1	504	5	3	"White32.jpg"	"Neg14.jpg"
1	1	2	1	5	"blackRight"	"posLeft"	1	2	194	"expBlockEval"	"Black_forehead_positive"	"Black"	"forehead"	"positive"	2	1	413	5	3	"Black31.jpg"	"Pos11.jpg"
1	1	2	1	5	"blackRight"	"posLeft"	1	2	195	"expBlockEval"	"Black_forehead_positive"	"Black"	"forehead"	"positive"	2	1	506	5	3	"Black16.jpg"	"Pos12.jpg"
1	1	2	1	5	"blackRight"	"posLeft"	1	2	196	"expBlockEval"	"White_eyes_negative"	"White"	"eyes"	"negative"	2	1	615	5	3	"White23.jpg"	"Neg12.jpg"
1	1	2	1	5	"blackRight"	"posLeft"	1	2	197	"expBlockEval"	"Black_forehead_positive"	"Black"	"forehead"	"positive"	3	0	0	5	3	"Black1.jpg"	"Pos15.jpg"
1	1	2	1	5	"blackRight"	"posLeft"	1	2	198	"expBlockEval"	"Black_eyes_positive"	"Black"	"eyes"	"positive"	2	1	522	5	3	"Black24.jpg"	"Pos10.jpg"
1	1	2	1	5	"blackRight"	"posLeft"	1	2	199	"expBlockEval"	"White_eyes_positive"	"White"	"eyes"	"positive"	2	1	535	5	3	"White31.jpg"	"Pos12.jpg"
1	1	2	1	5	"blackRight"	"posLeft"	1	2	200	"expBlockEval"	"White_forehead_negative"	"White"	"forehead"	"negative"	2	1	483	5	3	"White10.jpg"	"Neg13.jpg"
1	1	2	1	5	"blackRight"	"posLeft"	1	2	201	"expBlockEval"	"Black_eyes_positive"	"Black"	"eyes"	"positive"	2	1	401	5	3	"Black10.jpg"	"Pos11.jpg"
1	1	2	1	5	"blackRight"	"posLeft"	1	2	202	"expBlockEval"	"Black_eyes_negative"	"Black"	"eyes"	"negative"	2	1	478	5	3	"Black24.jpg"	"Neg10.jpg"
1	1	2	1	5	"blackRight"	"posLeft"	1	2	203	"expBlockEval"	"White_eyes_positive"	"White"	"eyes"	"positive"	2	1	643	5	3	"White3.jpg"	"Pos14.jpg"
1	1	2	1	5	"blackRight"	"posLeft"	1	2	204	"expBlockEval"	"Black_forehead_negative"	"Black"	"forehead"	"negative"	2	1	543	5	3	"Black3.jpg"	"Neg16.jpg"
1	1	2	1	5	"blackRight"	"posLeft"	1	2	205	"expBlockEval"	"Black_eyes_positive"	"Black"	"eyes"	"positive"	2	1	516	5	3	"Black31.jpg"	"Pos13.jpg"
1	1	2	1	5	"blackRight"	"posLeft"	1	2	206	"expBlockEval"	"Black_eyes_negative"	"Black"	"eyes"	"negative"	2	1	577	5	3	"Black23.jpg"	"Neg16.jpg"
1	1	2	1	5	"blackRight"	"posLeft"	1	2	207	"expBlockEval"	"White_forehead_negative"	"White"	"forehead"	"negative"	2	1	511	5	3	"White1.jpg"	"Neg15.jpg"
1	1	2	1	5	"blackRight"	"posLeft"	1	2	208	"expBlockEval"	"Black_eyes_positive"	"Black"	"eyes"	"positive"	2	1	724	5	3	"Black1.jpg"	"Pos14.jpg"
1	1	2	1	5	"blackRight"	"posLeft"	1	2	209	"expBlockEval"	"White_forehead_positive"	"White"	"forehead"	"positive"	2	1	625	5	3	"White57.jpg"	"Pos13.jpg"
1	1	2	1	5	"blackRight"	"posLeft"	1	2	210	"expBlockEval"	"White_eyes_positive"	"White"	"eyes"	"positive"	2	1	599	5	3	"White22.jpg"	"Pos11.jpg"
1	1	2	1	5	"blackRight"	"posLeft"	1	2	211	"expBlockEval"	"White_eyes_positive"	"White"	"eyes"	"positive"	2	1	548	5	3	"White38.jpg"	"Pos9.jpg"
1	1	2	1	5	"blackRight"	"posLeft"	1	2	212	"expBlockEval"	"White_eyes_positive"	"White"	"eyes"	"positive"	2	1	480	5	3	"White35.jpg"	"Pos16.jpg"
1	1	2	1	5	"blackRight"	"posLeft"	1	2	213	"expBlockEval"	"White_eyes_positive"	"White"	"eyes"	"positive"	2	1	628	5	3	"White16.jpg"	"Pos13.jpg"
1	1	2	1	5	"blackRight"	"posLeft"	1	2	214	"expBlockEval"	"Black_forehead_positive"	"Black"	"forehead"	"positive"	2	1	409	5	3	"Black17.jpg"	"Pos14.jpg"
1	1	2	1	5	"blackRight"	"posLeft"	1	2	215	"expBlockEval"	"White_eyes_positive"	"White"	"eyes"	"positive"	2	1	374	5	3	"White12.jpg"	"Pos16.jpg"
1	1	2	1	5	"blackRight"	"posLeft"	1	2	216	"expBlockEval"	"Black_forehead_negative"	"Black"	"forehead"	"negative"	2	1	635	5	3	"Black6.jpg"	"Neg11.jpg"
1	1	2	1	5	"blackRight"	"posLeft"	1	2	217	"expBlockEval"	"White_eyes_positive"	"White"	"eyes"	"positive"	2	1	783	5	3	"White21.jpg"	"Pos11.jpg"
1	1	2	1	5	"blackRight"	"posLeft"	1	2	218	"expBlockEval"	"White_eyes_negative"	"White"	"eyes"	"negative"	2	1	524	5	3	"White12.jpg"	"Neg13.jpg"
1	1	2	1	5	"blackRight"	"posLeft"	1	2	219	"expBlockEval"	"White_eyes_negative"	"White"	"eyes"	"negative"	2	1	401	5	3	"White26.jpg"	"Neg11.jpg"
1	1	2	1	5	"blackRight"	"posLeft"	1	2	220	"expBlockEval"	"Black_forehead_negative"	"Black"	"forehead"	"negative"	2	1	407	5	3	"Black15.jpg"	"Neg12.jpg"
1	1	2	1	5	"blackRight"	"posLeft"	1	2	221	"expBlockEval"	"Black_eyes_negative"	"Black"	"eyes"	"negative"	2	1	675	5	3	"Black50.jpg"	"Neg15.jpg"
1	1	2	1	5	"blackRight"	"posLeft"	1	2	222	"expBlockEval"	"White_forehead_negative"	"White"	"forehead"	"negative"	2	1	528	5	3	"White17.jpg"	"Neg16.jpg"
1	1	2	1	5	"blackRight"	"posLeft"	1	2	223	"expBlockEval"	"Black_forehead_positive"	"Black"	"forehead"	"positive"	2	1	421	5	3	"Black36.jpg"	"Pos10.jpg"
1	1	2	1	5	"blackRight"	"posLeft"	1	2	224	"expBlockEval"	"White_eyes_positive"	"White"	"eyes"	"positive"	2	1	579	5	3	"White34.jpg"	"Pos15.jpg"
1	1	2	1	5	"blackRight"	"posLeft"	1	2	225	"expBlockEval"	"White_eyes_negative"	"White"	"eyes"	"negative"	2	1	616	5	3	"White33.jpg"	"Neg16.jpg"
1	1	2	1	5	"blackRight"	"posLeft"	1	2	226	"expBlockEval"	"White_forehead_positive"	"White"	"forehead"	"positive"	2	1	557	5	3	"White30.jpg"	"Pos14.jpg"
1	1	2	1	5	"blackRight"	"posLeft"	1	2	227	"expBlockEval"	"White_eyes_positive"	"White"	"eyes"	"positive"	2	1	594	5	3	"White18.jpg"	"Pos13.jpg"
1	1	2	1	5	"blackRight"	"posLeft"	1	2	228	"expBlockEval"	"White_eyes_negative"	"White"	"eyes"	"negative"	3	0	0	5	3	"White2.jpg"	"Neg15.jpg"
1	1	2	1	5	"blackRight"	"posLeft"	1	2	229	"expBlockEval"	"White_eyes_positive"	"White"	"eyes"	"positive"	2	1	443	5	3	"White30.jpg"	"Pos9.jpg"
1	1	2	1	5	"blackRight"	"posLeft"	1	2	230	"expBlockEval"	"Black_eyes_positive"	"Black"	"eyes"	"positive"	2	1	440	5	3	"Black9.jpg"	"Pos12.jpg"
1	1	2	1	5	"blackRight"	"posLeft"	1	2	231	"expBlockEval"	"White_forehead_positive"	"White"	"forehead"	"positive"	2	1	406	5	3	"White23.jpg"	"Pos10.jpg"
1	1	2	1	5	"blackRight"	"posLeft"	1	2	232	"expBlockEval"	"Black_eyes_positive"	"Black"	"eyes"	"positive"	2	1	363	5	3	"Black12.jpg"	"Pos9.jpg"
1	1	2	1	5	"blackRight"	"posLeft"	1	2	233	"expBlockEval"	"Black_eyes_negative"	"Black"	"eyes"	"negative"	2	1	448	5	3	"Black36.jpg"	"Neg14.jpg"
1	1	2	1	5	"blackRight"	"posLeft"	1	2	234	"expBlockEval"	"Black_forehead_positive"	"Black"	"forehead"	"positive"	2	1	486	5	3	"Black23.jpg"	"Pos9.jpg"
1	1	2	1	5	"blackRight"	"posLeft"	1	2	235	"expBlockEval"	"White_forehead_negative"	"White"	"forehead"	"negative"	2	1	474	5	3	"White16.jpg"	"Neg9.jpg"
1	1	2	1	5	"blackRight"	"posLeft"	1	2	236	"expBlockEval"	"White_eyes_negative"	"White"	"eyes"	"negative"	2	1	479	5	3	"White6.jpg"	"Neg9.jpg"
1	1	2	1	5	"blackRight"	"posLeft"	1	2	237	"expBlockEval"	"Black_eyes_negative"	"Black"	"eyes"	"negative"	2	1	460	5	3	"Black5.jpg"	"Neg10.jpg"
1	1	2	1	5	"blackRight"	"posLeft"	1	2	238	"expBlockEval"	"Black_eyes_negative"	"Black"	"eyes"	"negative"	2	1	416	5	3	"Black9.jpg"	"Neg9.jpg"
1	1	2	1	5	"blackRight"	"posLeft"	1	2	239	"expBlockEval"	"White_forehead_negative"	"White"	"forehead"	"negative"	2	1	477	5	3	"White8.jpg"	"Neg12.jpg"
1	1	2	1	5	"blackRight"	"posLeft"	1	2	240	"expBlockEval"	"Black_forehead_positive"	"Black"	"forehead"	"positive"	2	1	442	5	3	"Black2.jpg"	"Pos13.jpg"
1	1	2	1	5	"blackRight"	"posLeft"	1	2	241	"expBlockEval"	"White_eyes_negative"	"White"	"eyes"	"negative"	1	0	664	5	3	"White38.jpg"	"Neg12.jpg"
1	1	2	1	5	"blackRight"	"posLeft"	1	2	242	"expBlockEval"	"White_eyes_negative"	"White"	"eyes"	"negative"	2	1	564	5	3	"White29.jpg"	"Neg14.jpg"
1	1	2	1	5	"blackRight"	"posLeft"	1	2	243	"expBlockEval"	"White_eyes_positive"	"White"	"eyes"	"positive"	2	1	481	5	3	"White24.jpg"	"Pos14.jpg"
1	1	2	1	5	"blackRight"	"posLeft"	1	2	244	"expBlockEval"	"Black_eyes_negative"	"Black"	"eyes"	"negative"	2	1	766	5	3	"Black6.jpg"	"Neg11.jpg"
1	1	2	1	5	"blackRight"	"posLeft"	1	2	245	"expBlockEval"	"Black_eyes_negative"	"Black"	"eyes"	"negative"	2	1	508	5	3	"Black2.jpg"	"Neg12.jpg"
1	1	2	1	5	"blackRight"	"posLeft"	1	2	246	"expBlockEval"	"White_eyes_negative"	"White"	"eyes"	"negative"	2	1	440	5	3	"White32.jpg"	"Neg13.jpg"
1	1	2	1	5	"blackRight"	"posLeft"	1	2	247	"expBlockEval"	"White_eyes_negative"	"White"	"eyes"	"negative"	2	1	429	5	3	"White5.jpg"	"Neg10.jpg"
1	1	2	1	5	"blackRight"	"posLeft"	1	2	248	"expBlockEval"	"White_forehead_negative"	"White"	"forehead"	"negative"	2	1	434	5	3	"White35.jpg"	"Neg10.jpg"
1	1	2	1	5	"blackRight"	"posLeft"	1	2	249	"expBlockEval"	"White_eyes_positive"	"White"	"eyes"	"positive"	2	1	519	5	3	"White56.jpg"	"Pos12.jpg"
1	1	2	1	5	"blackRight"	"posLeft"	1	2	250	"expBlockEval"	"White_forehead_negative"	"White"	"forehead"	"negative"	2	1	748	5	3	"White30.jpg"	"Neg11.jpg"
1	1	2	1	5	"blackRight"	"posLeft"	1	2	251	"expBlockEval"	"Black_forehead_negative"	"Black"	"forehead"	"negative"	2	1	473	5	3	"Black13.jpg"	"Neg9.jpg"
1	1	2	1	5	"blackRight"	"posLeft"	1	2	252	"expBlockEval"	"Black_eyes_positive"	"Black"	"eyes"	"positive"	2	1	526	5	3	"Black16.jpg"	"Pos16.jpg"
1	1	2	1	5	"blackRight"	"posLeft"	1	2	253	"expBlockEval"	"Black_eyes_positive"	"Black"	"eyes"	"positive"	2	1	571	5	3	"Black50.jpg"	"Pos15.jpg"
1	1	2	1	5	"blackRight"	"posLeft"	1	2	254	"expBlockEval"	"Black_forehead_positive"	"Black"	"forehead"	"positive"	2	1	552	5	3	"Black12.jpg"	"Pos16.jpg"
1	1	2	1	5	"blackRight"	"posLeft"	1	2	255	"expBlockEval"	"Black_eyes_negative"	"Black"	"eyes"	"negative"	2	1	510	5	3	"Black11.jpg"	"Neg13.jpg"
1	1	2	1	5	"blackRight"	"posLeft"	1	2	256	"expBlockEval"	"White_eyes_positive"	"White"	"eyes"	"positive"	2	1	434	5	3	"White9.jpg"	"Pos10.jpg"
1	1	2	1	5	"blackRight"	"posLeft"	1	3	1	"expBlockEval"	"White_forehead_negative"	"White"	"forehead"	"negative"	2	1	507	5	3	"White26.jpg"	"Neg15.jpg"
1	1	2	1	5	"blackRight"	"posLeft"	1	3	2	"expBlockEval"	"Black_eyes_negative"	"Black"	"eyes"	"negative"	2	1	456	5	3	"Black24.jpg"	"Neg14.jpg"
1	1	2	1	5	"blackRight"	"posLeft"	1	3	3	"expBlockEval"	"White_eyes_negative"	"White"	"eyes"	"negative"	2	1	509	5	3	"White24.jpg"	"Neg11.jpg"
1	1	2	1	5	"blackRight"	"posLeft"	1	3	4	"expBlockEval"	"Black_forehead_positive"	"Black"	"forehead"	"positive"	2	1	450	5	3	"Black17.jpg"	"Pos14.jpg"
1	1	2	1	5	"blackRight"	"posLeft"	1	3	5	"expBlockEval"	"Black_eyes_positive"	"Black"	"eyes"	"positive"	2	1	431	5	3	"Black3.jpg"	"Pos11.jpg"
1	1	2	1	5	"blackRight"	"posLeft"	1	3	6	"expBlockEval"	"White_forehead_negative"	"White"	"forehead"	"negative"	2	1	450	5	3	"White8.jpg"	"Neg12.jpg"
1	1	2	1	5	"blackRight"	"posLeft"	1	3	7	"expBlockEval"	"Black_eyes_negative"	"Black"	"eyes"	"negative"	2	1	447	5	3	"Black33.jpg"	"Neg11.jpg"
1	1	2	1	5	"blackRight"	"posLeft"	1	3	8	"expBlockEval"	"Black_eyes_positive"	"Black"	"eyes"	"positive"	2	1	644	5	3	"Black12.jpg"	"Pos15.jpg"
1	1	2	1	5	"blackRight"	"posLeft"	1	3	9	"expBlockEval"	"White_eyes_negative"	"White"	"eyes"	"negative"	2	1	481	5	3	"White6.jpg"	"Neg12.jpg"
1	1	2	1	5	"blackRight"	"posLeft"	1	3	10	"expBlockEval"	"White_forehead_positive"	"White"	"forehead"	"positive"	2	1	559	5	3	"White35.jpg"	"Pos14.jpg"
1	1	2	1	5	"blackRight"	"posLeft"	1	3	11	"expBlockEval"	"White_forehead_positive"	"White"	"forehead"	"positive"	2	1	452	5	3	"White34.jpg"	"Pos15.jpg"
1	1	2	1	5	"blackRight"	"posLeft"	1	3	12	"expBlockEval"	"White_forehead_positive"	"White"	"forehead"	"positive"	2	1	473	5	3	"White57.jpg"	"Pos10.jpg"
1	1	2	1	5	"blackRight"	"posLeft"	1	3	13	"expBlockEval"	"Black_eyes_positive"	"Black"	"eyes"	"positive"	2	1	455	5	3	"Black29.jpg"	"Pos12.jpg"
1	1	2	1	5	"blackRight"	"posLeft"	1	3	14	"expBlockEval"	"Black_forehead_negative"	"Black"	"forehead"	"negative"	2	1	491	5	3	"Black16.jpg"	"Neg12.jpg"
1	1	2	1	5	"blackRight"	"posLeft"	1	3	15	"expBlockEval"	"White_forehead_negative"	"White"	"forehead"	"negative"	2	1	449	5	3	"White1.jpg"	"Neg10.jpg"
1	1	2	1	5	"blackRight"	"posLeft"	1	3	16	"expBlockEval"	"Black_eyes_positive"	"Black"	"eyes"	"positive"	2	1	510	5	3	"Black33.jpg"	"Pos13.jpg"
1	1	2	1	5	"blackRight"	"posLeft"	1	3	17	"expBlockEval"	"Black_forehead_positive"	"Black"	"forehead"	"positive"	2	1	491	5	3	"Black29.jpg"	"Pos16.jpg"
1	1	2	1	5	"blackRight"	"posLeft"	1	3	18	"expBlockEval"	"Black_eyes_positive"	"Black"	"eyes"	"positive"	2	1	441	5	3	"Black7.jpg"	"Pos10.jpg"
1	1	2	1	5	"blackRight"	"posLeft"	1	3	19	"expBlockEval"	"White_forehead_positive"	"White"	"forehead"	"positive"	2	1	389	5	3	"White33.jpg"	"Pos16.jpg"
1	1	2	1	5	"blackRight"	"posLeft"	1	3	20	"expBlockEval"	"Black_forehead_negative"	"Black"	"forehead"	"negative"	2	1	427	5	3	"Black24.jpg"	"Neg15.jpg"
1	1	2	1	5	"blackRight"	"posLeft"	1	3	21	"expBlockEval"	"White_forehead_positive"	"White"	"forehead"	"positive"	2	1	439	5	3	"White29.jpg"	"Pos11.jpg"
1	1	2	1	5	"blackRight"	"posLeft"	1	3	22	"expBlockEval"	"Black_forehead_positive"	"Black"	"forehead"	"positive"	2	1	541	5	3	"Black23.jpg"	"Pos15.jpg"
1	1	2	1	5	"blackRight"	"posLeft"	1	3	23	"expBlockEval"	"White_forehead_negative"	"White"	"forehead"	"negative"	2	1	489	5	3	"White16.jpg"	"Neg14.jpg"
1	1	2	1	5	"blackRight"	"posLeft"	1	3	24	"expBlockEval"	"Black_forehead_positive"	"Black"	"forehead"	"positive"	2	1	534	5	3	"Black10.jpg"	"Pos10.jpg"
1	1	2	1	5	"blackRight"	"posLeft"	1	3	25	"expBlockEval"	"Black_eyes_negative"	"Black"	"eyes"	"negative"	3	0	0	5	3	"Black22.jpg"	"Neg9.jpg"
1	1	2	1	5	"blackRight"	"posLeft"	1	3	26	"expBlockEval"	"White_forehead_positive"	"White"	"forehead"	"positive"	2	1	528	5	3	"White11.jpg"	"Pos9.jpg"
1	1	2	1	5	"blackRight"	"posLeft"	1	3	27	"expBlockEval"	"White_eyes_positive"	"White"	"eyes"	"positive"	2	1	541	5	3	"White6.jpg"	"Pos11.jpg"
1	1	2	1	5	"blackRight"	"posLeft"	1	3	28	"expBlockEval"	"Black_forehead_negative"	"Black"	"forehead"	"negative"	2	1	530	5	3	"Black40.jpg"	"Neg9.jpg"
1	1	2	1	5	"blackRight"	"posLeft"	1	3	29	"expBlockEval"	"Black_eyes_negative"	"Black"	"eyes"	"negative"	2	1	535	5	3	"Black29.jpg"	"Neg10.jpg"
1	1	2	1	5	"blackRight"	"posLeft"	1	3	30	"expBlockEval"	"White_eyes_negative"	"White"	"eyes"	"negative"	2	1	388	5	3	"White23.jpg"	"Neg9.jpg"
1	1	2	1	5	"blackRight"	"posLeft"	1	3	31	"expBlockEval"	"Black_forehead_negative"	"Black"	"forehead"	"negative"	2	1	561	5	3	"Black10.jpg"	"Neg14.jpg"
1	1	2	1	5	"blackRight"	"posLeft"	1	3	32	"expBlockEval"	"White_eyes_negative"	"White"	"eyes"	"negative"	2	1	470	5	3	"White16.jpg"	"Neg15.jpg"
1	1	2	1	5	"blackRight"	"posLeft"	1	3	33	"expBlockEval"	"Black_eyes_negative"	"Black"	"eyes"	"negative"	2	1	466	5	3	"Black13.jpg"	"Neg15.jpg"
1	1	2	1	5	"blackRight"	"posLeft"	1	3	34	"expBlockEval"	"Black_forehead_negative"	"Black"	"forehead"	"negative"	2	1	544	5	3	"Black9.jpg"	"Neg13.jpg"
1	1	2	1	5	"blackRight"	"posLeft"	1	3	35	"expBlockEval"	"White_eyes_negative"	"White"	"eyes"	"negative"	2	1	493	5	3	"White20.jpg"	"Neg10.jpg"
1	1	2	1	5	"blackRight"	"posLeft"	1	3	36	"expBlockEval"	"Black_eyes_positive"	"Black"	"eyes"	"positive"	2	1	746	5	3	"Black9.jpg"	"Pos16.jpg"
1	1	2	1	5	"blackRight"	"posLeft"	1	3	37	"expBlockEval"	"White_eyes_negative"	"White"	"eyes"	"negative"	2	1	527	5	3	"White34.jpg"	"Neg16.jpg"
1	1	2	1	5	"blackRight"	"posLeft"	1	3	38	"expBlockEval"	"White_eyes_positive"	"White"	"eyes"	"positive"	2	1	780	5	3	"White26.jpg"	"Pos10.jpg"
1	1	2	1	5	"blackRight"	"posLeft"	1	3	39	"expBlockEval"	"White_eyes_positive"	"White"	"eyes"	"positive"	2	1	392	5	3	"White21.jpg"	"Pos13.jpg"
1	1	2	1	5	"blackRight"	"posLeft"	1	3	40	"expBlockEval"	"White_forehead_negative"	"White"	"forehead"	"negative"	2	1	493	5	3	"White18.jpg"	"Neg9.jpg"
1	1	2	1	5	"blackRight"	"posLeft"	1	3	41	"expBlockEval"	"Black_eyes_positive"	"Black"	"eyes"	"positive"	2	1	538	5	3	"Black17.jpg"	"Pos14.jpg"
1	1	2	1	5	"blackRight"	"posLeft"	1	3	42	"expBlockEval"	"White_eyes_positive"	"White"	"eyes"	"positive"	2	1	447	5	3	"White31.jpg"	"Pos15.jpg"
1	1	2	1	5	"blackRight"	"posLeft"	1	3	43	"expBlockEval"	"Black_eyes_negative"	"Black"	"eyes"	"negative"	2	1	533	5	3	"Black26.jpg"	"Neg16.jpg"
1	1	2	1	5	"blackRight"	"posLeft"	1	3	44	"expBlockEval"	"Black_forehead_negative"	"Black"	"forehead"	"negative"	2	1	489	5	3	"Black8.jpg"	"Neg16.jpg"
1	1	2	1	5	"blackRight"	"posLeft"	1	3	45	"expBlockEval"	"Black_forehead_negative"	"Black"	"forehead"	"negative"	2	1	455	5	3	"Black2.jpg"	"Neg10.jpg"
1	1	2	1	5	"blackRight"	"posLeft"	1	3	46	"expBlockEval"	"Black_eyes_positive"	"Black"	"eyes"	"positive"	1	0	403	5	3	"Black15.jpg"	"Pos9.jpg"
1	1	2	1	5	"blackRight"	"posLeft"	1	3	47	"expBlockEval"	"White_eyes_positive"	"White"	"eyes"	"positive"	2	1	631	5	3	"White3.jpg"	"Pos9.jpg"
1	1	2	1	5	"blackRight"	"posLeft"	1	3	48	"expBlockEval"	"White_eyes_positive"	"White"	"eyes"	"positive"	2	1	653	5	3	"White23.jpg"	"Pos16.jpg"
1	1	2	1	5	"blackRight"	"posLeft"	1	3	49	"expBlockEval"	"White_forehead_negative"	"White"	"forehead"	"negative"	2	1	521	5	3	"White5.jpg"	"Neg13.jpg"
1	1	2	1	5	"blackRight"	"posLeft"	1	3	50	"expBlockEval"	"Black_eyes_negative"	"Black"	"eyes"	"negative"	2	1	503	5	3	"Black21.jpg"	"Neg12.jpg"
1	1	2	1	5	"blackRight"	"posLeft"	1	3	51	"expBlockEval"	"White_forehead_positive"	"White"	"forehead"	"positive"	2	1	467	5	3	"White20.jpg"	"Pos12.jpg"
1	1	2	1	5	"blackRight"	"posLeft"	1	3	52	"expBlockEval"	"Black_eyes_negative"	"Black"	"eyes"	"negative"	2	1	456	5	3	"Black23.jpg"	"Neg13.jpg"
1	1	2	1	5	"blackRight"	"posLeft"	1	3	53	"expBlockEval"	"White_forehead_positive"	"White"	"forehead"	"positive"	2	1	446	5	3	"White18.jpg"	"Pos13.jpg"
1	1	2	1	5	"blackRight"	"posLeft"	1	3	54	"expBlockEval"	"White_eyes_negative"	"White"	"eyes"	"negative"	2	1	466	5	3	"White17.jpg"	"Neg14.jpg"
1	1	2	1	5	"blackRight"	"posLeft"	1	3	55	"expBlockEval"	"White_eyes_negative"	"White"	"eyes"	"negative"	1	0	488	5	3	"White56.jpg"	"Neg13.jpg"
1	1	2	1	5	"blackRight"	"posLeft"	1	3	56	"expBlockEval"	"Black_forehead_positive"	"Black"	"forehead"	"positive"	2	1	565	5	3	"Black20.jpg"	"Pos13.jpg"
1	1	2	1	5	"blackRight"	"posLeft"	1	3	57	"expBlockEval"	"White_eyes_positive"	"White"	"eyes"	"positive"	2	1	490	5	3	"White10.jpg"	"Pos14.jpg"
1	1	2	1	5	"blackRight"	"posLeft"	1	3	58	"expBlockEval"	"Black_eyes_positive"	"Black"	"eyes"	"positive"	2	1	495	5	3	"Black16.jpg"	"Pos14.jpg"
1	1	2	1	5	"blackRight"	"posLeft"	1	3	59	"expBlockEval"	"White_forehead_negative"	"White"	"forehead"	"negative"	2	1	468	5	3	"White2.jpg"	"Neg11.jpg"
1	1	2	1	5	"blackRight"	"posLeft"	1	3	60	"expBlockEval"	"Black_forehead_positive"	"Black"	"forehead"	"positive"	2	1	497	5	3	"Black36.jpg"	"Pos11.jpg"
1	1	2	1	5	"blackRight"	"posLeft"	1	3	61	"expBlockEval"	"White_eyes_positive"	"White"	"eyes"	"positive"	2	1	526	5	3	"White30.jpg"	"Pos12.jpg"
1	1	2	1	5	"blackRight"	"posLeft"	1	3	62	"expBlockEval"	"Black_eyes_positive"	"Black"	"eyes"	"positive"	2	1	499	5	3	"Black8.jpg"	"Pos13.jpg"
1	1	2	1	5	"blackRight"	"posLeft"	1	3	63	"expBlockEval"	"White_eyes_negative"	"White"	"eyes"	"negative"	2	1	744	5	3	"White32.jpg"	"Neg14.jpg"
1	1	2	1	5	"blackRight"	"posLeft"	1	3	64	"expBlockEval"	"Black_forehead_negative"	"Black"	"forehead"	"negative"	2	1	621	5	3	"Black29.jpg"	"Neg11.jpg"
1	1	2	1	5	"blackRight"	"posLeft"	1	3	65	"expBlockEval"	"Black_eyes_positive"	"Black"	"eyes"	"positive"	2	1	755	5	3	"Black21.jpg"	"Pos15.jpg"
1	1	2	1	5	"blackRight"	"posLeft"	1	3	66	"expBlockEval"	"Black_eyes_positive"	"Black"	"eyes"	"positive"	2	1	536	5	3	"Black5.jpg"	"Pos16.jpg"
1	1	2	1	5	"blackRight"	"posLeft"	1	3	67	"expBlockEval"	"White_eyes_negative"	"White"	"eyes"	"negative"	2	1	445	5	3	"White3.jpg"	"Neg15.jpg"
1	1	2	1	5	"blackRight"	"posLeft"	1	3	68	"expBlockEval"	"Black_eyes_negative"	"Black"	"eyes"	"negative"	2	1	465	5	3	"Black39.jpg"	"Neg9.jpg"
1	1	2	1	5	"blackRight"	"posLeft"	1	3	69	"expBlockEval"	"White_eyes_negative"	"White"	"eyes"	"negative"	2	1	518	5	3	"White11.jpg"	"Neg16.jpg"
1	1	2	1	5	"blackRight"	"posLeft"	1	3	70	"expBlockEval"	"White_eyes_positive"	"White"	"eyes"	"positive"	2	1	475	5	3	"White54.jpg"	"Pos9.jpg"
1	1	2	1	5	"blackRight"	"posLeft"	1	3	71	"expBlockEval"	"White_eyes_negative"	"White"	"eyes"	"negative"	2	1	487	5	3	"White10.jpg"	"Neg9.jpg"
1	1	2	1	5	"blackRight"	"posLeft"	1	3	72	"expBlockEval"	"White_eyes_positive"	"White"	"eyes"	"positive"	2	1	508	5	3	"White14.jpg"	"Pos16.jpg"
1	1	2	1	5	"blackRight"	"posLeft"	1	3	73	"expBlockEval"	"White_forehead_positive"	"White"	"forehead"	"positive"	2	1	545	5	3	"White23.jpg"	"Pos16.jpg"
1	1	2	1	5	"blackRight"	"posLeft"	1	3	74	"expBlockEval"	"White_forehead_negative"	"White"	"forehead"	"negative"	2	1	414	5	3	"White41.jpg"	"Neg16.jpg"
1	1	2	1	5	"blackRight"	"posLeft"	1	3	75	"expBlockEval"	"White_forehead_positive"	"White"	"forehead"	"positive"	2	1	523	5	3	"White16.jpg"	"Pos13.jpg"
1	1	2	1	5	"blackRight"	"posLeft"	1	3	76	"expBlockEval"	"Black_forehead_positive"	"Black"	"forehead"	"positive"	2	1	472	5	3	"Black7.jpg"	"Pos12.jpg"
1	1	2	1	5	"blackRight"	"posLeft"	1	3	77	"expBlockEval"	"White_eyes_positive"	"White"	"eyes"	"positive"	2	1	733	5	3	"White18.jpg"	"Pos14.jpg"
1	1	2	1	5	"blackRight"	"posLeft"	1	3	78	"expBlockEval"	"White_forehead_negative"	"White"	"forehead"	"negative"	2	1	426	5	3	"White54.jpg"	"Neg9.jpg"
1	1	2	1	5	"blackRight"	"posLeft"	1	3	79	"expBlockEval"	"Black_forehead_positive"	"Black"	"forehead"	"positive"	2	1	527	5	3	"Black5.jpg"	"Pos9.jpg"
1	1	2	1	5	"blackRight"	"posLeft"	1	3	80	"expBlockEval"	"White_eyes_positive"	"White"	"eyes"	"positive"	2	1	452	5	3	"White22.jpg"	"Pos15.jpg"
1	1	2	1	5	"blackRight"	"posLeft"	1	3	81	"expBlockEval"	"White_eyes_positive"	"White"	"eyes"	"positive"	2	1	417	5	3	"White56.jpg"	"Pos10.jpg"
1	1	2	1	5	"blackRight"	"posLeft"	1	3	82	"expBlockEval"	"Black_eyes_positive"	"Black"	"eyes"	"positive"	2	1	382	5	3	"Black13.jpg"	"Pos10.jpg"
1	1	2	1	5	"blackRight"	"posLeft"	1	3	83	"expBlockEval"	"White_forehead_positive"	"White"	"forehead"	"positive"	2	1	419	5	3	"White12.jpg"	"Pos12.jpg"
1	1	2	1	5	"blackRight"	"posLeft"	1	3	84	"expBlockEval"	"White_eyes_negative"	"White"	"eyes"	"negative"	2	1	528	5	3	"White38.jpg"	"Neg11.jpg"
1	1	2	1	5	"blackRight"	"posLeft"	1	3	85	"expBlockEval"	"White_forehead_negative"	"White"	"forehead"	"negative"	2	1	589	5	3	"White12.jpg"	"Neg14.jpg"
1	1	2	1	5	"blackRight"	"posLeft"	1	3	86	"expBlockEval"	"White_forehead_positive"	"White"	"forehead"	"positive"	2	1	514	5	3	"White10.jpg"	"Pos10.jpg"
1	1	2	1	5	"blackRight"	"posLeft"	1	3	87	"expBlockEval"	"Black_forehead_negative"	"Black"	"forehead"	"negative"	2	1	448	5	3	"Black26.jpg"	"Neg13.jpg"
1	1	2	1	5	"blackRight"	"posLeft"	1	3	88	"expBlockEval"	"White_eyes_positive"	"White"	"eyes"	"positive"	2	1	420	5	3	"White11.jpg"	"Pos13.jpg"
1	1	2	1	5	"blackRight"	"posLeft"	1	3	89	"expBlockEval"	"Black_eyes_positive"	"Black"	"eyes"	"positive"	2	1	522	5	3	"Black1.jpg"	"Pos11.jpg"
1	1	2	1	5	"blackRight"	"posLeft"	1	3	90	"expBlockEval"	"White_eyes_negative"	"White"	"eyes"	"negative"	2	1	637	5	3	"White12.jpg"	"Neg13.jpg"
1	1	2	1	5	"blackRight"	"posLeft"	1	3	91	"expBlockEval"	"Black_forehead_negative"	"Black"	"forehead"	"negative"	2	1	642	5	3	"Black17.jpg"	"Neg11.jpg"
1	1	2	1	5	"blackRight"	"posLeft"	1	3	92	"expBlockEval"	"White_eyes_positive"	"White"	"eyes"	"positive"	2	1	471	5	3	"White17.jpg"	"Pos11.jpg"
1	1	2	1	5	"blackRight"	"posLeft"	1	3	93	"expBlockEval"	"White_eyes_positive"	"White"	"eyes"	"positive"	2	1	797	5	3	"White2.jpg"	"Pos12.jpg"
1	1	2	1	5	"blackRight"	"posLeft"	1	3	94	"expBlockEval"	"Black_eyes_negative"	"Black"	"eyes"	"negative"	1	0	697	5	3	"Black50.jpg"	"Neg12.jpg"
1	1	2	1	5	"blackRight"	"posLeft"	1	3	95	"expBlockEval"	"White_eyes_negative"	"White"	"eyes"	"negative"	2	1	582	5	3	"White57.jpg"	"Neg10.jpg"
1	1	2	1	5	"blackRight"	"posLeft"	1	3	96	"expBlockEval"	"Black_forehead_negative"	"Black"	"forehead"	"negative"	2	1	436	5	3	"Black5.jpg"	"Neg10.jpg"
1	1	2	1	5	"blackRight"	"posLeft"	1	3	97	"expBlockEval"	"Black_forehead_positive"	"Black"	"forehead"	"positive"	2	1	497	5	3	"Black13.jpg"	"Pos14.jpg"
1	1	2	1	5	"blackRight"	"posLeft"	1	3	98	"expBlockEval"	"Black_eyes_positive"	"Black"	"eyes"	"positive"	2	1	550	5	3	"Black23.jpg"	"Pos9.jpg"
1	1	2	1	5	"blackRight"	"posLeft"	1	3	99	"expBlockEval"	"White_forehead_positive"	"White"	"forehead"	"positive"	2	1	444	5	3	"White14.jpg"	"Pos14.jpg"
1	1	2	1	5	"blackRight"	"posLeft"	1	3	100	"expBlockEval"	"Black_forehead_positive"	"Black"	"forehead"	"positive"	2	1	649	5	3	"Black24.jpg"	"Pos16.jpg"
1	1	2	1	5	"blackRight"	"posLeft"	1	3	101	"expBlockEval"	"White_eyes_positive"	"White"	"eyes"	"positive"	2	1	598	5	3	"White8.jpg"	"Pos14.jpg"
1	1	2	1	5	"blackRight"	"posLeft"	1	3	102	"expBlockEval"	"White_eyes_positive"	"White"	"eyes"	"positive"	2	1	426	5	3	"White24.jpg"	"Pos11.jpg"
1	1	2	1	5	"blackRight"	"posLeft"	1	3	103	"expBlockEval"	"Black_forehead_negative"	"Black"	"forehead"	"negative"	2	1	447	5	3	"Black33.jpg"	"Neg14.jpg"
1	1	2	1	5	"blackRight"	"posLeft"	1	3	104	"expBlockEval"	"Black_eyes_negative"	"Black"	"eyes"	"negative"	2	1	548	5	3	"Black15.jpg"	"Neg16.jpg"
1	1	2	1	5	"blackRight"	"posLeft"	1	3	105	"expBlockEval"	"White_forehead_negative"	"White"	"forehead"	"negative"	2	1	488	5	3	"White33.jpg"	"Neg11.jpg"
1	1	2	1	5	"blackRight"	"posLeft"	1	3	106	"expBlockEval"	"Black_eyes_positive"	"Black"	"eyes"	"positive"	2	1	493	5	3	"Black31.jpg"	"Pos12.jpg"
1	1	2	1	5	"blackRight"	"posLeft"	1	3	107	"expBlockEval"	"Black_forehead_negative"	"Black"	"forehead"	"negative"	2	1	578	5	3	"Black15.jpg"	"Neg12.jpg"
1	1	2	1	5	"blackRight"	"posLeft"	1	3	108	"expBlockEval"	"White_forehead_negative"	"White"	"forehead"	"negative"	2	1	575	5	3	"White11.jpg"	"Neg13.jpg"
1	1	2	1	5	"blackRight"	"posLeft"	1	3	109	"expBlockEval"	"White_eyes_negative"	"White"	"eyes"	"negative"	2	1	795	5	3	"White21.jpg"	"Neg12.jpg"
1	1	2	1	5	"blackRight"	"posLeft"	1	3	110	"expBlockEval"	"White_eyes_negative"	"White"	"eyes"	"negative"	2	1	721	5	3	"White22.jpg"	"Neg14.jpg"
1	1	2	1	5	"blackRight"	"posLeft"	1	3	111	"expBlockEval"	"Black_forehead_positive"	"Black"	"forehead"	"positive"	2	1	485	5	3	"Black32.jpg"	"Pos15.jpg"
1	1	2	1	5	"blackRight"	"posLeft"	1	3	112	"expBlockEval"	"Black_forehead_positive"	"Black"	"forehead"	"positive"	2	1	499	5	3	"Black2.jpg"	"Pos12.jpg"
1	1	2	1	5	"blackRight"	"posLeft"	1	3	113	"expBlockEval"	"Black_eyes_negative"	"Black"	"eyes"	"negative"	2	1	544	5	3	"Black20.jpg"	"Neg13.jpg"
1	1	2	1	5	"blackRight"	"posLeft"	1	3	114	"expBlockEval"	"Black_forehead_positive"	"Black"	"forehead"	"positive"	2	1	429	5	3	"Black1.jpg"	"Pos10.jpg"
1	1	2	1	5	"blackRight"	"posLeft"	1	3	115	"expBlockEval"	"White_forehead_negative"	"White"	"forehead"	"negative"	2	1	666	5	3	"White57.jpg"	"Neg16.jpg"
1	1	2	1	5	"blackRight"	"posLeft"	1	3	116	"expBlockEval"	"Black_eyes_negative"	"Black"	"eyes"	"negative"	1	0	527	5	3	"Black12.jpg"	"Neg14.jpg"
1	1	2	1	5	"blackRight"	"posLeft"	1	3	117	"expBlockEval"	"Black_eyes_positive"	"Black"	"eyes"	"positive"	2	1	613	5	3	"Black10.jpg"	"Pos16.jpg"
1	1	2	1	5	"blackRight"	"posLeft"	1	3	118	"expBlockEval"	"Black_eyes_positive"	"Black"	"eyes"	"positive"	2	1	538	5	3	"Black26.jpg"	"Pos10.jpg"
1	1	2	1	5	"blackRight"	"posLeft"	1	3	119	"expBlockEval"	"Black_forehead_positive"	"Black"	"forehead"	"positive"	2	1	343	5	3	"Black33.jpg"	"Pos13.jpg"
1	1	2	1	5	"blackRight"	"posLeft"	1	3	120	"expBlockEval"	"White_eyes_positive"	"White"	"eyes"	"positive"	2	1	557	5	3	"White34.jpg"	"Pos16.jpg"
1	1	2	1	5	"blackRight"	"posLeft"	1	3	121	"expBlockEval"	"White_forehead_negative"	"White"	"forehead"	"negative"	2	1	474	5	3	"White21.jpg"	"Neg10.jpg"
1	1	2	1	5	"blackRight"	"posLeft"	1	3	122	"expBlockEval"	"Black_forehead_negative"	"Black"	"forehead"	"negative"	2	1	471	5	3	"Black23.jpg"	"Neg16.jpg"
1	1	2	1	5	"blackRight"	"posLeft"	1	3	123	"expBlockEval"	"White_forehead_negative"	"White"	"forehead"	"negative"	2	1	565	5	3	"White35.jpg"	"Neg15.jpg"
1	1	2	1	5	"blackRight"	"posLeft"	1	3	124	"expBlockEval"	"Black_forehead_negative"	"Black"	"forehead"	"negative"	2	1	521	5	3	"Black39.jpg"	"Neg15.jpg"
1	1	2	1	5	"blackRight"	"posLeft"	1	3	125	"expBlockEval"	"White_eyes_positive"	"White"	"eyes"	"positive"	3	0	0	5	3	"White32.jpg"	"Pos12.jpg"
1	1	2	1	5	"blackRight"	"posLeft"	1	3	126	"expBlockEval"	"White_eyes_negative"	"White"	"eyes"	"negative"	2	1	450	5	3	"White33.jpg"	"Neg12.jpg"
1	1	2	1	5	"blackRight"	"posLeft"	1	3	127	"expBlockEval"	"Black_eyes_positive"	"Black"	"eyes"	"positive"	2	1	504	5	3	"Black25.jpg"	"Pos15.jpg"
1	1	2	1	5	"blackRight"	"posLeft"	1	3	128	"expBlockEval"	"White_eyes_negative"	"White"	"eyes"	"negative"	2	1	484	5	3	"White54.jpg"	"Neg15.jpg"
1	1	2	1	5	"blackRight"	"posLeft"	1	3	129	"expBlockEval"	"White_forehead_positive"	"White"	"forehead"	"positive"	2	1	526	5	3	"White24.jpg"	"Pos9.jpg"
1	1	2	1	5	"blackRight"	"posLeft"	1	3	130	"expBlockEval"	"Black_eyes_negative"	"Black"	"eyes"	"negative"	2	1	482	5	3	"Black17.jpg"	"Neg15.jpg"
1	1	2	1	5	"blackRight"	"posLeft"	1	3	131	"expBlockEval"	"Black_forehead_negative"	"Black"	"forehead"	"negative"	2	1	512	5	3	"Black32.jpg"	"Neg9.jpg"
1	1	2	1	5	"blackRight"	"posLeft"	1	3	132	"expBlockEval"	"Black_eyes_negative"	"Black"	"eyes"	"negative"	2	1	437	5	3	"Black2.jpg"	"Neg11.jpg"
1	1	2	1	5	"blackRight"	"posLeft"	1	3	133	"expBlockEval"	"Black_forehead_positive"	"Black"	"forehead"	"positive"	2	1	394	5	3	"Black9.jpg"	"Pos9.jpg"
1	1	2	1	5	"blackRight"	"posLeft"	1	3	134	"expBlockEval"	"White_forehead_negative"	"White"	"forehead"	"negative"	2	1	455	5	3	"White30.jpg"	"Neg12.jpg"
1	1	2	1	5	"blackRight"	"posLeft"	1	3	135	"expBlockEval"	"White_eyes_negative"	"White"	"eyes"	"negative"	2	1	516	5	3	"White8.jpg"	"Neg13.jpg"
1	1	2	1	5	"blackRight"	"posLeft"	1	3	136	"expBlockEval"	"White_eyes_positive"	"White"	"eyes"	"positive"	2	1	649	5	3	"White9.jpg"	"Pos13.jpg"
1	1	2	1	5	"blackRight"	"posLeft"	1	3	137	"expBlockEval"	"Black_forehead_negative"	"Black"	"forehead"	"negative"	2	1	623	5	3	"Black1.jpg"	"Neg11.jpg"
1	1	2	1	5	"blackRight"	"posLeft"	1	3	138	"expBlockEval"	"White_forehead_positive"	"White"	"forehead"	"positive"	2	1	500	5	3	"White56.jpg"	"Pos15.jpg"
1	1	2	1	5	"blackRight"	"posLeft"	1	3	139	"expBlockEval"	"Black_forehead_negative"	"Black"	"forehead"	"negative"	2	1	489	5	3	"Black36.jpg"	"Neg13.jpg"
1	1	2	1	5	"blackRight"	"posLeft"	1	3	140	"expBlockEval"	"White_forehead_positive"	"White"	"forehead"	"positive"	2	1	422	5	3	"White17.jpg"	"Pos11.jpg"
1	1	2	1	5	"blackRight"	"posLeft"	1	3	141	"expBlockEval"	"Black_forehead_positive"	"Black"	"forehead"	"positive"	2	1	523	5	3	"Black16.jpg"	"Pos11.jpg"
1	1	2	1	5	"blackRight"	"posLeft"	1	3	142	"expBlockEval"	"Black_forehead_negative"	"Black"	"forehead"	"negative"	2	1	447	5	3	"Black25.jpg"	"Neg15.jpg"
1	1	2	1	5	"blackRight"	"posLeft"	1	3	143	"expBlockEval"	"White_eyes_positive"	"White"	"eyes"	"positive"	2	1	468	5	3	"White20.jpg"	"Pos15.jpg"
1	1	2	1	5	"blackRight"	"posLeft"	1	3	144	"expBlockEval"	"White_forehead_positive"	"White"	"forehead"	"positive"	2	1	489	5	3	"White1.jpg"	"Pos14.jpg"
1	1	2	1	5	"blackRight"	"posLeft"	1	3	145	"expBlockEval"	"White_eyes_negative"	"White"	"eyes"	"negative"	2	1	518	5	3	"White31.jpg"	"Neg9.jpg"
1	1	2	1	5	"blackRight"	"posLeft"	1	3	146	"expBlockEval"	"White_forehead_positive"	"White"	"forehead"	"positive"	2	1	523	5	3	"White22.jpg"	"Pos12.jpg"
1	1	2	1	5	"blackRight"	"posLeft"	1	3	147	"expBlockEval"	"Black_forehead_negative"	"Black"	"forehead"	"negative"	2	1	592	5	3	"Black51.jpg"	"Neg14.jpg"
1	1	2	1	5	"blackRight"	"posLeft"	1	3	148	"expBlockEval"	"White_forehead_negative"	"White"	"forehead"	"negative"	1	0	733	5	3	"White22.jpg"	"Neg11.jpg"
1	1	2	1	5	"blackRight"	"posLeft"	1	3	149	"expBlockEval"	"White_forehead_positive"	"White"	"forehead"	"positive"	2	1	474	5	3	"White5.jpg"	"Pos11.jpg"
1	1	2	1	5	"blackRight"	"posLeft"	1	3	150	"expBlockEval"	"White_eyes_negative"	"White"	"eyes"	"negative"	2	1	439	5	3	"White35.jpg"	"Neg11.jpg"
1	1	2	1	5	"blackRight"	"posLeft"	1	3	151	"expBlockEval"	"Black_eyes_negative"	"Black"	"eyes"	"negative"	2	1	500	5	3	"Black40.jpg"	"Neg10.jpg"
1	1	2	1	5	"blackRight"	"posLeft"	1	3	152	"expBlockEval"	"Black_forehead_positive"	"Black"	"forehead"	"positive"	2	1	514	5	3	"Black25.jpg"	"Pos9.jpg"
1	1	2	1	5	"blackRight"	"posLeft"	1	3	153	"expBlockEval"	"Black_forehead_negative"	"Black"	"forehead"	"negative"	2	1	511	5	3	"Black20.jpg"	"Neg9.jpg"
1	1	2	1	5	"blackRight"	"posLeft"	1	3	154	"expBlockEval"	"White_eyes_negative"	"White"	"eyes"	"negative"	2	1	428	5	3	"White1.jpg"	"Neg10.jpg"
1	1	2	1	5	"blackRight"	"posLeft"	1	3	155	"expBlockEval"	"White_forehead_negative"	"White"	"forehead"	"negative"	2	1	490	5	3	"White3.jpg"	"Neg12.jpg"
1	1	2	1	5	"blackRight"	"posLeft"	1	3	156	"expBlockEval"	"White_forehead_negative"	"White"	"forehead"	"negative"	2	1	535	5	3	"White9.jpg"	"Neg14.jpg"
1	1	2	1	5	"blackRight"	"posLeft"	1	3	157	"expBlockEval"	"Black_eyes_negative"	"Black"	"eyes"	"negative"	2	1	524	5	3	"Black8.jpg"	"Neg9.jpg"
1	1	2	1	5	"blackRight"	"posLeft"	1	3	158	"expBlockEval"	"White_forehead_positive"	"White"	"forehead"	"positive"	2	1	441	5	3	"White8.jpg"	"Pos13.jpg"
1	1	2	1	5	"blackRight"	"posLeft"	1	3	159	"expBlockEval"	"Black_eyes_negative"	"Black"	"eyes"	"negative"	2	1	518	5	3	"Black3.jpg"	"Neg15.jpg"
1	1	2	1	5	"blackRight"	"posLeft"	1	3	160	"expBlockEval"	"Black_forehead_negative"	"Black"	"forehead"	"negative"	2	1	476	5	3	"Black31.jpg"	"Neg12.jpg"
1	1	2	1	5	"blackRight"	"posLeft"	1	3	161	"expBlockEval"	"Black_eyes_positive"	"Black"	"eyes"	"positive"	2	1	577	5	3	"Black20.jpg"	"Pos13.jpg"
1	1	2	1	5	"blackRight"	"posLeft"	1	3	162	"expBlockEval"	"Black_eyes_negative"	"Black"	"eyes"	"negative"	2	1	750	5	3	"Black6.jpg"	"Neg14.jpg"
1	1	2	1	5	"blackRight"	"posLeft"	1	3	163	"expBlockEval"	"Black_forehead_positive"	"Black"	"forehead"	"positive"	2	1	466	5	3	"Black39.jpg"	"Pos13.jpg"
1	1	2	1	5	"blackRight"	"posLeft"	1	3	164	"expBlockEval"	"White_forehead_negative"	"White"	"forehead"	"negative"	2	1	527	5	3	"White17.jpg"	"Neg15.jpg"
1	1	2	1	5	"blackRight"	"posLeft"	1	3	165	"expBlockEval"	"Black_forehead_negative"	"Black"	"forehead"	"negative"	2	1	788	5	3	"Black13.jpg"	"Neg16.jpg"
1	1	2	1	5	"blackRight"	"posLeft"	1	3	166	"expBlockEval"	"White_eyes_positive"	"White"	"eyes"	"positive"	2	1	513	5	3	"White1.jpg"	"Pos9.jpg"
1	1	2	1	5	"blackRight"	"posLeft"	1	3	167	"expBlockEval"	"Black_eyes_positive"	"Black"	"eyes"	"positive"	2	1	557	5	3	"Black24.jpg"	"Pos14.jpg"
1	1	2	1	5	"blackRight"	"posLeft"	1	3	168	"expBlockEval"	"White_forehead_negative"	"White"	"forehead"	"negative"	2	1	482	5	3	"White32.jpg"	"Neg13.jpg"
1	1	2	1	5	"blackRight"	"posLeft"	1	3	169	"expBlockEval"	"Black_forehead_negative"	"Black"	"forehead"	"negative"	2	1	487	5	3	"Black21.jpg"	"Neg10.jpg"
1	1	2	1	5	"blackRight"	"posLeft"	1	3	170	"expBlockEval"	"Black_eyes_negative"	"Black"	"eyes"	"negative"	3	0	0	5	3	"Black5.jpg"	"Neg12.jpg"
1	1	2	1	5	"blackRight"	"posLeft"	1	3	171	"expBlockEval"	"Black_forehead_positive"	"Black"	"forehead"	"positive"	2	1	489	5	3	"Black15.jpg"	"Pos12.jpg"
1	1	2	1	5	"blackRight"	"posLeft"	1	3	172	"expBlockEval"	"Black_eyes_negative"	"Black"	"eyes"	"negative"	2	1	382	5	3	"Black7.jpg"	"Neg16.jpg"
1	1	2	1	5	"blackRight"	"posLeft"	1	3	173	"expBlockEval"	"White_forehead_negative"	"White"	"forehead"	"negative"	2	1	428	5	3	"White38.jpg"	"Neg9.jpg"
1	1	2	1	5	"blackRight"	"posLeft"	1	3	174	"expBlockEval"	"Black_eyes_negative"	"Black"	"eyes"	"negative"	2	1	433	5	3	"Black1.jpg"	"Neg10.jpg"
1	1	2	1	5	"blackRight"	"posLeft"	1	3	175	"expBlockEval"	"Black_forehead_negative"	"Black"	"forehead"	"negative"	2	1	518	5	3	"Black11.jpg"	"Neg12.jpg"
1	1	2	1	5	"blackRight"	"posLeft"	1	3	176	"expBlockEval"	"Black_forehead_positive"	"Black"	"forehead"	"positive"	1	0	435	5	3	"Black40.jpg"	"Pos14.jpg"
1	1	2	1	5	"blackRight"	"posLeft"	1	3	177	"expBlockEval"	"Black_eyes_negative"	"Black"	"eyes"	"negative"	2	1	616	5	3	"Black25.jpg"	"Neg13.jpg"
1	1	2	1	5	"blackRight"	"posLeft"	1	3	178	"expBlockEval"	"Black_forehead_positive"	"Black"	"forehead"	"positive"	2	1	477	5	3	"Black51.jpg"	"Pos16.jpg"
1	1	2	1	5	"blackRight"	"posLeft"	1	3	179	"expBlockEval"	"White_eyes_positive"	"White"	"eyes"	"positive"	2	1	610	5	3	"White5.jpg"	"Pos10.jpg"
1	1	2	1	5	"blackRight"	"posLeft"	1	3	180	"expBlockEval"	"Black_forehead_positive"	"Black"	"forehead"	"positive"	2	1	463	5	3	"Black11.jpg"	"Pos15.jpg"
1	1	2	1	5	"blackRight"	"posLeft"	1	3	181	"expBlockEval"	"Black_eyes_negative"	"Black"	"eyes"	"negative"	2	1	636	5	3	"Black9.jpg"	"Neg11.jpg"
1	1	2	1	5	"blackRight"	"posLeft"	1	3	182	"expBlockEval"	"White_forehead_positive"	"White"	"forehead"	"positive"	2	1	473	5	3	"White21.jpg"	"Pos10.jpg"
1	1	2	1	5	"blackRight"	"posLeft"	1	3	183	"expBlockEval"	"Black_forehead_negative"	"Black"	"forehead"	"negative"	1	0	391	5	3	"Black50.jpg"	"Neg11.jpg"
1	1	2	1	5	"blackRight"	"posLeft"	1	3	184	"expBlockEval"	"Black_forehead_positive"	"Black"	"forehead"	"positive"	2	1	507	5	3	"Black6.jpg"	"Pos11.jpg"
1	1	2	1	5	"blackRight"	"posLeft"	1	3	185	"expBlockEval"	"Black_forehead_negative"	"Black"	"forehead"	"negative"	2	1	505	5	3	"Black12.jpg"	"Neg16.jpg"
1	1	2	1	5	"blackRight"	"posLeft"	1	3	186	"expBlockEval"	"White_forehead_positive"	"White"	"forehead"	"positive"	2	1	462	5	3	"White6.jpg"	"Pos16.jpg"
1	1	2	1	5	"blackRight"	"posLeft"	1	3	187	"expBlockEval"	"White_forehead_negative"	"White"	"forehead"	"negative"	2	1	459	5	3	"White23.jpg"	"Neg10.jpg"
1	1	2	1	5	"blackRight"	"posLeft"	1	3	188	"expBlockEval"	"Black_forehead_positive"	"Black"	"forehead"	"positive"	2	1	656	5	3	"Black21.jpg"	"Pos10.jpg"
1	1	2	1	5	"blackRight"	"posLeft"	1	3	189	"expBlockEval"	"Black_forehead_positive"	"Black"	"forehead"	"positive"	2	1	533	5	3	"Black22.jpg"	"Pos9.jpg"
1	1	2	1	5	"blackRight"	"posLeft"	1	3	190	"expBlockEval"	"White_forehead_negative"	"White"	"forehead"	"negative"	2	1	531	5	3	"White24.jpg"	"Neg16.jpg"
1	1	2	1	5	"blackRight"	"posLeft"	1	3	191	"expBlockEval"	"Black_eyes_positive"	"Black"	"eyes"	"positive"	3	0	0	5	3	"Black50.jpg"	"Pos9.jpg"
1	1	2	1	5	"blackRight"	"posLeft"	1	3	192	"expBlockEval"	"White_forehead_negative"	"White"	"forehead"	"negative"	2	1	452	5	3	"White20.jpg"	"Neg13.jpg"
1	1	2	1	5	"blackRight"	"posLeft"	1	3	193	"expBlockEval"	"White_eyes_negative"	"White"	"eyes"	"negative"	2	1	409	5	3	"White5.jpg"	"Neg16.jpg"
1	1	2	1	5	"blackRight"	"posLeft"	1	3	194	"expBlockEval"	"Black_forehead_negative"	"Black"	"forehead"	"negative"	2	1	463	5	3	"Black7.jpg"	"Neg15.jpg"
1	1	2	1	5	"blackRight"	"posLeft"	1	3	195	"expBlockEval"	"Black_eyes_positive"	"Black"	"eyes"	"positive"	2	1	403	5	3	"Black40.jpg"	"Pos12.jpg"
1	1	2	1	5	"blackRight"	"posLeft"	1	3	196	"expBlockEval"	"Black_eyes_positive"	"Black"	"eyes"	"positive"	2	1	425	5	3	"Black27.jpg"	"Pos11.jpg"
1	1	2	1	5	"blackRight"	"posLeft"	1	3	197	"expBlockEval"	"Black_forehead_positive"	"Black"	"forehead"	"positive"	1	0	381	5	3	"Black50.jpg"	"Pos14.jpg"
1	1	2	1	5	"blackRight"	"posLeft"	1	3	198	"expBlockEval"	"White_forehead_negative"	"White"	"forehead"	"negative"	2	1	458	5	3	"White31.jpg"	"Neg15.jpg"
1	1	2	1	5	"blackRight"	"posLeft"	1	3	199	"expBlockEval"	"Black_forehead_positive"	"Black"	"forehead"	"positive"	2	1	551	5	3	"Black26.jpg"	"Pos16.jpg"
1	1	2	1	5	"blackRight"	"posLeft"	1	3	200	"expBlockEval"	"White_forehead_negative"	"White"	"forehead"	"negative"	2	1	452	5	3	"White6.jpg"	"Neg12.jpg"
1	1	2	1	5	"blackRight"	"posLeft"	1	3	201	"expBlockEval"	"White_eyes_positive"	"White"	"eyes"	"positive"	2	1	489	5	3	"White38.jpg"	"Pos12.jpg"
1	1	2	1	5	"blackRight"	"posLeft"	1	3	202	"expBlockEval"	"Black_forehead_positive"	"Black"	"forehead"	"positive"	2	1	462	5	3	"Black31.jpg"	"Pos10.jpg"
1	1	2	1	5	"blackRight"	"posLeft"	1	3	203	"expBlockEval"	"Black_eyes_positive"	"Black"	"eyes"	"positive"	2	1	498	5	3	"Black39.jpg"	"Pos16.jpg"
1	1	2	1	5	"blackRight"	"posLeft"	1	3	204	"expBlockEval"	"White_eyes_positive"	"White"	"eyes"	"positive"	2	1	487	5	3	"White33.jpg"	"Pos13.jpg"
1	1	2	1	5	"blackRight"	"posLeft"	1	3	205	"expBlockEval"	"White_forehead_positive"	"White"	"forehead"	"positive"	2	1	516	5	3	"White9.jpg"	"Pos15.jpg"
1	1	2	1	5	"blackRight"	"posLeft"	1	3	206	"expBlockEval"	"White_eyes_positive"	"White"	"eyes"	"positive"	2	1	496	5	3	"White12.jpg"	"Pos14.jpg"
1	1	2	1	5	"blackRight"	"posLeft"	1	3	207	"expBlockEval"	"White_eyes_negative"	"White"	"eyes"	"negative"	2	1	478	5	3	"White30.jpg"	"Neg15.jpg"
1	1	2	1	5	"blackRight"	"posLeft"	1	3	208	"expBlockEval"	"Black_eyes_negative"	"Black"	"eyes"	"negative"	1	0	643	5	3	"Black16.jpg"	"Neg10.jpg"
1	1	2	1	5	"blackRight"	"posLeft"	1	3	209	"expBlockEval"	"Black_eyes_positive"	"Black"	"eyes"	"positive"	2	1	440	5	3	"Black51.jpg"	"Pos13.jpg"
1	1	2	1	5	"blackRight"	"posLeft"	1	3	210	"expBlockEval"	"Black_forehead_positive"	"Black"	"forehead"	"positive"	2	1	389	5	3	"Black12.jpg"	"Pos15.jpg"
1	1	2	1	5	"blackRight"	"posLeft"	1	3	211	"expBlockEval"	"Black_forehead_negative"	"Black"	"forehead"	"negative"	2	1	507	5	3	"Black22.jpg"	"Neg9.jpg"
1	1	2	1	5	"blackRight"	"posLeft"	1	3	212	"expBlockEval"	"White_forehead_negative"	"White"	"forehead"	"negative"	2	1	511	5	3	"White10.jpg"	"Neg9.jpg"
1	1	2	1	5	"blackRight"	"posLeft"	1	3	213	"expBlockEval"	"White_eyes_negative"	"White"	"eyes"	"negative"	2	1	485	5	3	"White29.jpg"	"Neg11.jpg"
1	1	2	1	5	"blackRight"	"posLeft"	1	3	214	"expBlockEval"	"White_eyes_positive"	"White"	"eyes"	"positive"	2	1	458	5	3	"White35.jpg"	"Pos16.jpg"
1	1	2	1	5	"blackRight"	"posLeft"	1	3	215	"expBlockEval"	"White_forehead_positive"	"White"	"forehead"	"positive"	2	1	647	5	3	"White2.jpg"	"Pos9.jpg"
1	1	2	1	5	"blackRight"	"posLeft"	1	3	216	"expBlockEval"	"Black_forehead_positive"	"Black"	"forehead"	"positive"	3	0	0	5	3	"Black8.jpg"	"Pos12.jpg"
1	1	2	1	5	"blackRight"	"posLeft"	1	3	217	"expBlockEval"	"Black_eyes_negative"	"Black"	"eyes"	"negative"	2	1	441	5	3	"Black31.jpg"	"Neg16.jpg"
1	1	2	1	5	"blackRight"	"posLeft"	1	3	218	"expBlockEval"	"Black_eyes_positive"	"Black"	"eyes"	"positive"	2	1	470	5	3	"Black36.jpg"	"Pos11.jpg"
1	1	2	1	5	"blackRight"	"posLeft"	1	3	219	"expBlockEval"	"White_eyes_negative"	"White"	"eyes"	"negative"	2	1	443	5	3	"White9.jpg"	"Neg10.jpg"
1	1	2	1	5	"blackRight"	"posLeft"	1	3	220	"expBlockEval"	"Black_forehead_positive"	"Black"	"forehead"	"positive"	1	0	424	5	3	"Black3.jpg"	"Pos11.jpg"
1	1	2	1	5	"blackRight"	"posLeft"	1	3	221	"expBlockEval"	"Black_eyes_negative"	"Black"	"eyes"	"negative"	2	1	662	5	3	"Black10.jpg"	"Neg14.jpg"
1	1	2	1	5	"blackRight"	"posLeft"	1	3	222	"expBlockEval"	"Black_forehead_negative"	"Black"	"forehead"	"negative"	2	1	547	5	3	"Black6.jpg"	"Neg13.jpg"
1	1	2	1	5	"blackRight"	"posLeft"	1	3	223	"expBlockEval"	"Black_eyes_positive"	"Black"	"eyes"	"positive"	2	1	528	5	3	"Black32.jpg"	"Pos12.jpg"
1	1	2	1	5	"blackRight"	"posLeft"	1	3	224	"expBlockEval"	"Black_eyes_negative"	"Black"	"eyes"	"negative"	2	1	549	5	3	"Black51.jpg"	"Neg11.jpg"
1	1	2	1	5	"blackRight"	"posLeft"	1	3	225	"expBlockEval"	"Black_forehead_negative"	"Black"	"forehead"	"negative"	2	1	538	5	3	"Black27.jpg"	"Neg14.jpg"
1	1	2	1	5	"blackRight"	"posLeft"	1	3	226	"expBlockEval"	"White_eyes_positive"	"White"	"eyes"	"positive"	2	1	431	5	3	"White29.jpg"	"Pos15.jpg"
1	1	2	1	5	"blackRight"	"posLeft"	1	3	227	"expBlockEval"	"White_forehead_negative"	"White"	"forehead"	"negative"	2	1	492	5	3	"White56.jpg"	"Neg10.jpg"
1	1	2	1	5	"blackRight"	"posLeft"	1	3	228	"expBlockEval"	"Black_forehead_positive"	"Black"	"forehead"	"positive"	2	1	497	5	3	"Black27.jpg"	"Pos13.jpg"
1	1	2	1	5	"blackRight"	"posLeft"	1	3	229	"expBlockEval"	"White_forehead_positive"	"White"	"forehead"	"positive"	2	1	590	5	3	"White31.jpg"	"Pos15.jpg"
1	1	2	1	5	"blackRight"	"posLeft"	1	3	230	"expBlockEval"	"White_eyes_positive"	"White"	"eyes"	"positive"	2	1	715	5	3	"White57.jpg"	"Pos10.jpg"
1	1	2	1	5	"blackRight"	"posLeft"	1	3	231	"expBlockEval"	"Black_eyes_negative"	"Black"	"eyes"	"negative"	2	1	441	5	3	"Black36.jpg"	"Neg15.jpg"
1	1	2	1	5	"blackRight"	"posLeft"	1	3	232	"expBlockEval"	"Black_eyes_positive"	"Black"	"eyes"	"positive"	2	1	430	5	3	"Black22.jpg"	"Pos15.jpg"
1	1	2	1	5	"blackRight"	"posLeft"	1	3	233	"expBlockEval"	"White_forehead_positive"	"White"	"forehead"	"positive"	2	1	563	5	3	"White3.jpg"	"Pos14.jpg"
1	1	2	1	5	"blackRight"	"posLeft"	1	3	234	"expBlockEval"	"White_eyes_negative"	"White"	"eyes"	"negative"	2	1	503	5	3	"White2.jpg"	"Neg9.jpg"
1	1	2	1	5	"blackRight"	"posLeft"	1	3	235	"expBlockEval"	"Black_eyes_negative"	"Black"	"eyes"	"negative"	2	1	517	5	3	"Black27.jpg"	"Neg12.jpg"
1	1	2	1	5	"blackRight"	"posLeft"	1	3	236	"expBlockEval"	"White_forehead_positive"	"White"	"forehead"	"positive"	2	1	450	5	3	"White30.jpg"	"Pos12.jpg"
1	1	2	1	5	"blackRight"	"posLeft"	1	3	237	"expBlockEval"	"White_forehead_positive"	"White"	"forehead"	"positive"	2	1	463	5	3	"White26.jpg"	"Pos13.jpg"
1	1	2	1	5	"blackRight"	"posLeft"	1	3	238	"expBlockEval"	"White_eyes_positive"	"White"	"eyes"	"positive"	2	1	556	5	3	"White16.jpg"	"Pos11.jpg"
1	1	2	1	5	"blackRight"	"posLeft"	1	3	239	"expBlockEval"	"White_forehead_positive"	"White"	"forehead"	"positive"	2	1	441	5	3	"White32.jpg"	"Pos16.jpg"
1	1	2	1	5	"blackRight"	"posLeft"	1	3	240	"expBlockEval"	"White_forehead_negative"	"White"	"forehead"	"negative"	2	1	782	5	3	"White34.jpg"	"Neg11.jpg"
1	1	2	1	5	"blackRight"	"posLeft"	1	3	241	"expBlockEval"	"Black_eyes_negative"	"Black"	"eyes"	"negative"	2	1	563	5	3	"Black32.jpg"	"Neg13.jpg"
1	1	2	1	5	"blackRight"	"posLeft"	1	3	242	"expBlockEval"	"White_eyes_negative"	"White"	"eyes"	"negative"	2	1	489	5	3	"White26.jpg"	"Neg14.jpg"
1	1	2	1	5	"blackRight"	"posLeft"	1	3	243	"expBlockEval"	"Black_eyes_negative"	"Black"	"eyes"	"negative"	2	1	486	5	3	"Black11.jpg"	"Neg9.jpg"
1	1	2	1	5	"blackRight"	"posLeft"	1	3	244	"expBlockEval"	"White_forehead_positive"	"White"	"forehead"	"positive"	2	1	491	5	3	"White38.jpg"	"Pos9.jpg"
1	1	2	1	5	"blackRight"	"posLeft"	1	3	245	"expBlockEval"	"White_forehead_positive"	"White"	"forehead"	"positive"	2	1	544	5	3	"White54.jpg"	"Pos11.jpg"
1	1	2	1	5	"blackRight"	"posLeft"	1	3	246	"expBlockEval"	"Black_eyes_positive"	"Black"	"eyes"	"positive"	2	1	469	5	3	"Black11.jpg"	"Pos14.jpg"
1	1	2	1	5	"blackRight"	"posLeft"	1	3	247	"expBlockEval"	"White_eyes_negative"	"White"	"eyes"	"negative"	2	1	443	5	3	"White41.jpg"	"Neg13.jpg"
1	1	2	1	5	"blackRight"	"posLeft"	1	3	248	"expBlockEval"	"Black_forehead_negative"	"Black"	"forehead"	"negative"	2	1	472	5	3	"Black3.jpg"	"Neg10.jpg"
1	1	2	1	5	"blackRight"	"posLeft"	1	3	249	"expBlockEval"	"Black_eyes_positive"	"Black"	"eyes"	"positive"	2	1	525	5	3	"Black6.jpg"	"Pos9.jpg"
1	1	2	1	5	"blackRight"	"posLeft"	1	3	250	"expBlockEval"	"Black_eyes_positive"	"Black"	"eyes"	"positive"	2	1	482	5	3	"Black2.jpg"	"Pos10.jpg"
1	1	2	1	5	"blackRight"	"posLeft"	1	3	251	"expBlockEval"	"White_eyes_positive"	"White"	"eyes"	"positive"	2	1	479	5	3	"White41.jpg"	"Pos9.jpg"
1	1	2	1	5	"blackRight"	"posLeft"	1	3	252	"expBlockEval"	"White_eyes_negative"	"White"	"eyes"	"negative"	2	1	475	5	3	"White14.jpg"	"Neg12.jpg"
1	1	2	1	5	"blackRight"	"posLeft"	1	3	253	"expBlockEval"	"White_eyes_negative"	"White"	"eyes"	"negative"	2	1	456	5	3	"White18.jpg"	"Neg16.jpg"
1	1	2	1	5	"blackRight"	"posLeft"	1	3	254	"expBlockEval"	"White_forehead_positive"	"White"	"forehead"	"positive"	2	1	525	5	3	"White41.jpg"	"Pos10.jpg"
1	1	2	1	5	"blackRight"	"posLeft"	1	3	255	"expBlockEval"	"White_forehead_negative"	"White"	"forehead"	"negative"	2	1	627	5	3	"White29.jpg"	"Neg16.jpg"
1	1	2	1	5	"blackRight"	"posLeft"	1	3	256	"expBlockEval"	"White_forehead_negative"	"White"	"forehead"	"negative"	2	1	559	5	3	"White14.jpg"	"Neg14.jpg"
10	5	2	2	5	"blackLeft"	"posLeft"	1	1	1	"practiceBlockEval"	"White_forehead_negative"	"White"	"forehead"	"negative"	3	0	0	5	5	"White63.jpg"	"Neg12.jpg"
10	5	2	2	5	"blackLeft"	"posLeft"	1	1	2	"practiceBlockEval"	"Black_eyes_negative"	"Black"	"eyes"	"negative"	2	1	540	5	5	"Black64.jpg"	"Neg11.jpg"
10	5	2	2	5	"blackLeft"	"posLeft"	1	1	3	"practiceBlockEval"	"Black_eyes_positive"	"Black"	"eyes"	"positive"	2	1	690	5	5	"Black62.jpg"	"Pos13.jpg"
10	5	2	2	5	"blackLeft"	"posLeft"	1	1	4	"practiceBlockEval"	"Black_forehead_negative"	"Black"	"forehead"	"negative"	3	0	0	5	5	"Black61.jpg"	"Neg9.jpg"
10	5	2	2	5	"blackLeft"	"posLeft"	1	1	5	"practiceBlockEval"	"White_eyes_negative"	"White"	"eyes"	"negative"	2	1	503	5	5	"White61.jpg"	"Neg10.jpg"
10	5	2	2	5	"blackLeft"	"posLeft"	1	1	6	"practiceBlockEval"	"Black_forehead_negative"	"Black"	"forehead"	"negative"	2	1	541	5	5	"Black69.jpg"	"Neg15.jpg"
10	5	2	2	5	"blackLeft"	"posLeft"	1	1	7	"practiceBlockEval"	"Black_eyes_positive"	"Black"	"eyes"	"positive"	2	1	712	5	5	"Black66.jpg"	"Pos15.jpg"
10	5	2	2	5	"blackLeft"	"posLeft"	1	1	8	"practiceBlockEval"	"White_eyes_positive"	"White"	"eyes"	"positive"	3	0	0	5	5	"White64.jpg"	"Pos11.jpg"
10	5	2	2	5	"blackLeft"	"posLeft"	1	1	9	"practiceBlockEval"	"White_forehead_positive"	"White"	"forehead"	"positive"	2	1	512	5	5	"White65.jpg"	"Pos16.jpg"
10	5	2	2	5	"blackLeft"	"posLeft"	1	1	10	"practiceBlockEval"	"White_forehead_positive"	"White"	"forehead"	"positive"	2	1	614	5	5	"White68.jpg"	"Pos14.jpg"
10	5	2	2	5	"blackLeft"	"posLeft"	1	1	11	"practiceBlockEval"	"White_forehead_negative"	"White"	"forehead"	"negative"	2	1	611	5	5	"White66.jpg"	"Neg13.jpg"
10	5	2	2	5	"blackLeft"	"posLeft"	1	1	12	"practiceBlockEval"	"Black_forehead_positive"	"Black"	"forehead"	"positive"	2	1	504	5	5	"Black63.jpg"	"Pos10.jpg"
10	5	2	2	5	"blackLeft"	"posLeft"	1	1	13	"practiceBlockEval"	"White_eyes_positive"	"White"	"eyes"	"positive"	2	1	614	5	5	"White69.jpg"	"Pos12.jpg"
10	5	2	2	5	"blackLeft"	"posLeft"	1	1	14	"practiceBlockEval"	"White_eyes_negative"	"White"	"eyes"	"negative"	2	1	468	5	5	"White67.jpg"	"Neg14.jpg"
10	5	2	2	5	"blackLeft"	"posLeft"	1	1	15	"practiceBlockEval"	"Black_eyes_negative"	"Black"	"eyes"	"negative"	2	1	521	5	5	"Black65.jpg"	"Neg16.jpg"
10	5	2	2	5	"blackLeft"	"posLeft"	1	1	16	"practiceBlockEval"	"Black_forehead_positive"	"Black"	"forehead"	"positive"	1	0	462	5	5	"Black70.jpg"	"Pos9.jpg"
10	5	2	2	5	"blackLeft"	"posLeft"	1	2	1	"expBlockEval"	"White_forehead_negative"	"White"	"forehead"	"negative"	2	1	556	5	5	"White17.jpg"	"Neg10.jpg"
10	5	2	2	5	"blackLeft"	"posLeft"	1	2	2	"expBlockEval"	"White_eyes_positive"	"White"	"eyes"	"positive"	2	1	576	5	5	"White5.jpg"	"Pos11.jpg"
10	5	2	2	5	"blackLeft"	"posLeft"	1	2	3	"expBlockEval"	"Black_forehead_positive"	"Black"	"forehead"	"positive"	2	1	510	5	5	"Black12.jpg"	"Pos15.jpg"
10	5	2	2	5	"blackLeft"	"posLeft"	1	2	4	"expBlockEval"	"White_eyes_negative"	"White"	"eyes"	"negative"	2	1	587	5	5	"White34.jpg"	"Neg12.jpg"
10	5	2	2	5	"blackLeft"	"posLeft"	1	2	5	"expBlockEval"	"Black_eyes_negative"	"Black"	"eyes"	"negative"	2	1	552	5	5	"Black29.jpg"	"Neg16.jpg"
10	5	2	2	5	"blackLeft"	"posLeft"	1	2	6	"expBlockEval"	"Black_forehead_positive"	"Black"	"forehead"	"positive"	2	1	558	5	5	"Black13.jpg"	"Pos14.jpg"
10	5	2	2	5	"blackLeft"	"posLeft"	1	2	7	"expBlockEval"	"Black_forehead_negative"	"Black"	"forehead"	"negative"	2	1	427	5	5	"Black25.jpg"	"Neg10.jpg"
10	5	2	2	5	"blackLeft"	"posLeft"	1	2	8	"expBlockEval"	"White_eyes_positive"	"White"	"eyes"	"positive"	2	1	504	5	5	"White56.jpg"	"Pos16.jpg"
10	5	2	2	5	"blackLeft"	"posLeft"	1	2	9	"expBlockEval"	"Black_eyes_positive"	"Black"	"eyes"	"positive"	1	0	558	5	5	"Black36.jpg"	"Pos9.jpg"
10	5	2	2	5	"blackLeft"	"posLeft"	1	2	10	"expBlockEval"	"Black_eyes_positive"	"Black"	"eyes"	"positive"	2	1	539	5	5	"Black32.jpg"	"Pos15.jpg"
10	5	2	2	5	"blackLeft"	"posLeft"	1	2	11	"expBlockEval"	"Black_eyes_positive"	"Black"	"eyes"	"positive"	2	1	464	5	5	"Black40.jpg"	"Pos16.jpg"
10	5	2	2	5	"blackLeft"	"posLeft"	1	2	12	"expBlockEval"	"White_eyes_positive"	"White"	"eyes"	"positive"	2	1	429	5	5	"White30.jpg"	"Pos9.jpg"
10	5	2	2	5	"blackLeft"	"posLeft"	1	2	13	"expBlockEval"	"White_eyes_positive"	"White"	"eyes"	"positive"	2	1	457	5	5	"White57.jpg"	"Pos12.jpg"
10	5	2	2	5	"blackLeft"	"posLeft"	1	2	14	"expBlockEval"	"White_eyes_positive"	"White"	"eyes"	"positive"	2	1	518	5	5	"White33.jpg"	"Pos14.jpg"
10	5	2	2	5	"blackLeft"	"posLeft"	1	2	15	"expBlockEval"	"Black_eyes_negative"	"Black"	"eyes"	"negative"	2	1	532	5	5	"Black40.jpg"	"Neg12.jpg"
10	5	2	2	5	"blackLeft"	"posLeft"	1	2	16	"expBlockEval"	"Black_eyes_positive"	"Black"	"eyes"	"positive"	2	1	497	5	5	"Black13.jpg"	"Pos11.jpg"
10	5	2	2	5	"blackLeft"	"posLeft"	1	2	17	"expBlockEval"	"White_forehead_negative"	"White"	"forehead"	"negative"	2	1	590	5	5	"White3.jpg"	"Neg9.jpg"
10	5	2	2	5	"blackLeft"	"posLeft"	1	2	18	"expBlockEval"	"White_forehead_negative"	"White"	"forehead"	"negative"	3	0	0	5	5	"White32.jpg"	"Neg15.jpg"
10	5	2	2	5	"blackLeft"	"posLeft"	1	2	19	"expBlockEval"	"White_eyes_negative"	"White"	"eyes"	"negative"	2	1	656	5	5	"White30.jpg"	"Neg14.jpg"
10	5	2	2	5	"blackLeft"	"posLeft"	1	2	20	"expBlockEval"	"Black_eyes_positive"	"Black"	"eyes"	"positive"	2	1	710	5	5	"Black7.jpg"	"Pos12.jpg"
10	5	2	2	5	"blackLeft"	"posLeft"	1	2	21	"expBlockEval"	"White_eyes_positive"	"White"	"eyes"	"positive"	2	1	490	5	5	"White41.jpg"	"Pos13.jpg"
10	5	2	2	5	"blackLeft"	"posLeft"	1	2	22	"expBlockEval"	"White_eyes_negative"	"White"	"eyes"	"negative"	2	1	656	5	5	"White20.jpg"	"Neg11.jpg"
10	5	2	2	5	"blackLeft"	"posLeft"	1	2	23	"expBlockEval"	"Black_eyes_negative"	"Black"	"eyes"	"negative"	2	1	541	5	5	"Black10.jpg"	"Neg10.jpg"
10	5	2	2	5	"blackLeft"	"posLeft"	1	2	24	"expBlockEval"	"White_eyes_positive"	"White"	"eyes"	"positive"	2	1	553	5	5	"White2.jpg"	"Pos15.jpg"
10	5	2	2	5	"blackLeft"	"posLeft"	1	2	25	"expBlockEval"	"White_eyes_negative"	"White"	"eyes"	"negative"	2	1	502	5	5	"White3.jpg"	"Neg16.jpg"
10	5	2	2	5	"blackLeft"	"posLeft"	1	2	26	"expBlockEval"	"White_eyes_negative"	"White"	"eyes"	"negative"	2	1	603	5	5	"White10.jpg"	"Neg13.jpg"
10	5	2	2	5	"blackLeft"	"posLeft"	1	2	27	"expBlockEval"	"Black_eyes_negative"	"Black"	"eyes"	"negative"	2	1	687	5	5	"Black39.jpg"	"Neg15.jpg"
10	5	2	2	5	"blackLeft"	"posLeft"	1	2	28	"expBlockEval"	"White_forehead_negative"	"White"	"forehead"	"negative"	2	1	596	5	5	"White29.jpg"	"Neg16.jpg"
10	5	2	2	5	"blackLeft"	"posLeft"	1	2	29	"expBlockEval"	"White_forehead_positive"	"White"	"forehead"	"positive"	2	1	569	5	5	"White2.jpg"	"Pos9.jpg"
10	5	2	2	5	"blackLeft"	"posLeft"	1	2	30	"expBlockEval"	"White_forehead_negative"	"White"	"forehead"	"negative"	2	1	566	5	5	"White16.jpg"	"Neg14.jpg"
10	5	2	2	5	"blackLeft"	"posLeft"	1	2	31	"expBlockEval"	"White_eyes_positive"	"White"	"eyes"	"positive"	2	1	571	5	5	"White26.jpg"	"Pos10.jpg"
10	5	2	2	5	"blackLeft"	"posLeft"	1	2	32	"expBlockEval"	"Black_eyes_negative"	"Black"	"eyes"	"negative"	2	1	568	5	5	"Black2.jpg"	"Neg9.jpg"
10	5	2	2	5	"blackLeft"	"posLeft"	1	2	33	"expBlockEval"	"Black_forehead_positive"	"Black"	"forehead"	"positive"	2	1	517	5	5	"Black22.jpg"	"Pos10.jpg"
10	5	2	2	5	"blackLeft"	"posLeft"	1	2	34	"expBlockEval"	"Black_forehead_negative"	"Black"	"forehead"	"negative"	2	1	515	5	5	"Black3.jpg"	"Neg14.jpg"
10	5	2	2	5	"blackLeft"	"posLeft"	1	2	35	"expBlockEval"	"Black_forehead_negative"	"Black"	"forehead"	"negative"	2	1	544	5	5	"Black36.jpg"	"Neg16.jpg"
10	5	2	2	5	"blackLeft"	"posLeft"	1	2	36	"expBlockEval"	"White_forehead_positive"	"White"	"forehead"	"positive"	2	1	597	5	5	"White23.jpg"	"Pos16.jpg"
10	5	2	2	5	"blackLeft"	"posLeft"	1	2	37	"expBlockEval"	"Black_forehead_negative"	"Black"	"forehead"	"negative"	2	1	563	5	5	"Black5.jpg"	"Neg12.jpg"
10	5	2	2	5	"blackLeft"	"posLeft"	1	2	38	"expBlockEval"	"Black_forehead_positive"	"Black"	"forehead"	"positive"	2	1	512	5	5	"Black3.jpg"	"Pos11.jpg"
10	5	2	2	5	"blackLeft"	"posLeft"	1	2	39	"expBlockEval"	"Black_forehead_negative"	"Black"	"forehead"	"negative"	2	1	509	5	5	"Black31.jpg"	"Neg11.jpg"
10	5	2	2	5	"blackLeft"	"posLeft"	1	2	40	"expBlockEval"	"Black_eyes_positive"	"Black"	"eyes"	"positive"	2	1	491	5	5	"Black10.jpg"	"Pos13.jpg"
10	5	2	2	5	"blackLeft"	"posLeft"	1	2	41	"expBlockEval"	"White_eyes_negative"	"White"	"eyes"	"negative"	2	1	527	5	5	"White26.jpg"	"Neg10.jpg"
10	5	2	2	5	"blackLeft"	"posLeft"	1	2	42	"expBlockEval"	"White_forehead_positive"	"White"	"forehead"	"positive"	2	1	524	5	5	"White57.jpg"	"Pos14.jpg"
10	5	2	2	5	"blackLeft"	"posLeft"	1	2	43	"expBlockEval"	"Black_eyes_positive"	"Black"	"eyes"	"positive"	2	1	530	5	5	"Black17.jpg"	"Pos14.jpg"
10	5	2	2	5	"blackLeft"	"posLeft"	1	2	44	"expBlockEval"	"Black_forehead_positive"	"Black"	"forehead"	"positive"	2	1	567	5	5	"Black20.jpg"	"Pos9.jpg"
10	5	2	2	5	"blackLeft"	"posLeft"	1	2	45	"expBlockEval"	"White_forehead_positive"	"White"	"forehead"	"positive"	2	1	524	5	5	"White8.jpg"	"Pos13.jpg"
10	5	2	2	5	"blackLeft"	"posLeft"	1	2	46	"expBlockEval"	"White_forehead_positive"	"White"	"forehead"	"positive"	2	1	433	5	5	"White41.jpg"	"Pos10.jpg"
10	5	2	2	5	"blackLeft"	"posLeft"	1	2	47	"expBlockEval"	"White_eyes_negative"	"White"	"eyes"	"negative"	2	1	670	5	5	"White35.jpg"	"Neg9.jpg"
10	5	2	2	5	"blackLeft"	"posLeft"	1	2	48	"expBlockEval"	"Black_forehead_positive"	"Black"	"forehead"	"positive"	2	1	540	5	5	"Black9.jpg"	"Pos12.jpg"
10	5	2	2	5	"blackLeft"	"posLeft"	1	2	49	"expBlockEval"	"Black_eyes_positive"	"Black"	"eyes"	"positive"	2	1	457	5	5	"Black20.jpg"	"Pos10.jpg"
10	5	2	2	5	"blackLeft"	"posLeft"	1	2	50	"expBlockEval"	"White_eyes_negative"	"White"	"eyes"	"negative"	1	0	430	5	5	"White9.jpg"	"Neg15.jpg"
10	5	2	2	5	"blackLeft"	"posLeft"	1	2	51	"expBlockEval"	"Black_forehead_positive"	"Black"	"forehead"	"positive"	2	1	564	5	5	"Black24.jpg"	"Pos16.jpg"
10	5	2	2	5	"blackLeft"	"posLeft"	1	2	52	"expBlockEval"	"Black_eyes_negative"	"Black"	"eyes"	"negative"	2	1	480	5	5	"Black1.jpg"	"Neg11.jpg"
10	5	2	2	5	"blackLeft"	"posLeft"	1	2	53	"expBlockEval"	"Black_forehead_negative"	"Black"	"forehead"	"negative"	1	0	509	5	5	"Black17.jpg"	"Neg13.jpg"
10	5	2	2	5	"blackLeft"	"posLeft"	1	2	54	"expBlockEval"	"Black_forehead_positive"	"Black"	"forehead"	"positive"	3	0	0	5	5	"Black25.jpg"	"Pos13.jpg"
10	5	2	2	5	"blackLeft"	"posLeft"	1	2	55	"expBlockEval"	"Black_eyes_negative"	"Black"	"eyes"	"negative"	2	1	464	5	5	"Black21.jpg"	"Neg13.jpg"
10	5	2	2	5	"blackLeft"	"posLeft"	1	2	56	"expBlockEval"	"Black_eyes_positive"	"Black"	"eyes"	"positive"	2	1	589	5	5	"Black9.jpg"	"Pos9.jpg"
10	5	2	2	5	"blackLeft"	"posLeft"	1	2	57	"expBlockEval"	"Black_eyes_negative"	"Black"	"eyes"	"negative"	2	1	698	5	5	"Black50.jpg"	"Neg14.jpg"
10	5	2	2	5	"blackLeft"	"posLeft"	1	2	58	"expBlockEval"	"Black_eyes_negative"	"Black"	"eyes"	"negative"	2	1	495	5	5	"Black20.jpg"	"Neg13.jpg"
10	5	2	2	5	"blackLeft"	"posLeft"	1	2	59	"expBlockEval"	"White_forehead_positive"	"White"	"forehead"	"positive"	2	1	469	5	5	"White22.jpg"	"Pos15.jpg"
10	5	2	2	5	"blackLeft"	"posLeft"	1	2	60	"expBlockEval"	"White_forehead_positive"	"White"	"forehead"	"positive"	2	1	497	5	5	"White6.jpg"	"Pos12.jpg"
10	5	2	2	5	"blackLeft"	"posLeft"	1	2	61	"expBlockEval"	"Black_eyes_positive"	"Black"	"eyes"	"positive"	2	1	566	5	5	"Black25.jpg"	"Pos11.jpg"
10	5	2	2	5	"blackLeft"	"posLeft"	1	2	62	"expBlockEval"	"Black_forehead_negative"	"Black"	"forehead"	"negative"	3	0	0	5	5	"Black11.jpg"	"Neg15.jpg"
10	5	2	2	5	"blackLeft"	"posLeft"	1	2	63	"expBlockEval"	"White_eyes_negative"	"White"	"eyes"	"negative"	2	1	744	5	5	"White12.jpg"	"Neg13.jpg"
10	5	2	2	5	"blackLeft"	"posLeft"	1	2	64	"expBlockEval"	"Black_forehead_negative"	"Black"	"forehead"	"negative"	2	1	709	5	5	"Black20.jpg"	"Neg9.jpg"
10	5	2	2	5	"blackLeft"	"posLeft"	1	2	65	"expBlockEval"	"White_forehead_positive"	"White"	"forehead"	"positive"	2	1	451	5	5	"White20.jpg"	"Pos11.jpg"
10	5	2	2	5	"blackLeft"	"posLeft"	1	2	66	"expBlockEval"	"White_eyes_positive"	"White"	"eyes"	"positive"	2	1	416	5	5	"White29.jpg"	"Pos11.jpg"
10	5	2	2	5	"blackLeft"	"posLeft"	1	2	67	"expBlockEval"	"Black_forehead_positive"	"Black"	"forehead"	"positive"	2	1	325	5	5	"Black10.jpg"	"Pos11.jpg"
10	5	2	2	5	"blackLeft"	"posLeft"	1	2	68	"expBlockEval"	"White_eyes_negative"	"White"	"eyes"	"negative"	2	1	563	5	5	"White56.jpg"	"Neg12.jpg"
10	5	2	2	5	"blackLeft"	"posLeft"	1	2	69	"expBlockEval"	"White_eyes_negative"	"White"	"eyes"	"negative"	2	1	520	5	5	"White24.jpg"	"Neg10.jpg"
10	5	2	2	5	"blackLeft"	"posLeft"	1	2	70	"expBlockEval"	"White_eyes_negative"	"White"	"eyes"	"negative"	1	0	733	5	5	"White11.jpg"	"Neg14.jpg"
10	5	2	2	5	"blackLeft"	"posLeft"	1	2	71	"expBlockEval"	"White_forehead_positive"	"White"	"forehead"	"positive"	3	0	0	5	5	"White21.jpg"	"Pos13.jpg"
10	5	2	2	5	"blackLeft"	"posLeft"	1	2	72	"expBlockEval"	"Black_eyes_positive"	"Black"	"eyes"	"positive"	2	1	599	5	5	"Black31.jpg"	"Pos14.jpg"
10	5	2	2	5	"blackLeft"	"posLeft"	1	2	73	"expBlockEval"	"White_eyes_negative"	"White"	"eyes"	"negative"	2	1	508	5	5	"White5.jpg"	"Neg11.jpg"
10	5	2	2	5	"blackLeft"	"posLeft"	1	2	74	"expBlockEval"	"Black_forehead_negative"	"Black"	"forehead"	"negative"	2	1	505	5	5	"Black40.jpg"	"Neg10.jpg"
10	5	2	2	5	"blackLeft"	"posLeft"	1	2	75	"expBlockEval"	"Black_forehead_positive"	"Black"	"forehead"	"positive"	2	1	527	5	5	"Black16.jpg"	"Pos12.jpg"
10	5	2	2	5	"blackLeft"	"posLeft"	1	2	76	"expBlockEval"	"White_eyes_positive"	"White"	"eyes"	"positive"	3	0	0	5	5	"White31.jpg"	"Pos12.jpg"
10	5	2	2	5	"blackLeft"	"posLeft"	1	2	77	"expBlockEval"	"Black_eyes_positive"	"Black"	"eyes"	"positive"	2	1	617	5	5	"Black33.jpg"	"Pos15.jpg"
10	5	2	2	5	"blackLeft"	"posLeft"	1	2	78	"expBlockEval"	"White_forehead_negative"	"White"	"forehead"	"negative"	2	1	670	5	5	"White41.jpg"	"Neg11.jpg"
10	5	2	2	5	"blackLeft"	"posLeft"	1	2	79	"expBlockEval"	"Black_eyes_positive"	"Black"	"eyes"	"positive"	2	1	475	5	5	"Black16.jpg"	"Pos16.jpg"
10	5	2	2	5	"blackLeft"	"posLeft"	1	2	80	"expBlockEval"	"Black_forehead_positive"	"Black"	"forehead"	"positive"	2	1	368	5	5	"Black33.jpg"	"Pos14.jpg"
10	5	2	2	5	"blackLeft"	"posLeft"	1	2	81	"expBlockEval"	"Black_eyes_negative"	"Black"	"eyes"	"negative"	2	1	485	5	5	"Black13.jpg"	"Neg14.jpg"
10	5	2	2	5	"blackLeft"	"posLeft"	1	2	82	"expBlockEval"	"White_forehead_positive"	"White"	"forehead"	"positive"	2	1	370	5	5	"White33.jpg"	"Pos10.jpg"
10	5	2	2	5	"blackLeft"	"posLeft"	1	2	83	"expBlockEval"	"White_forehead_negative"	"White"	"forehead"	"negative"	2	1	432	5	5	"White23.jpg"	"Neg13.jpg"
10	5	2	2	5	"blackLeft"	"posLeft"	1	2	84	"expBlockEval"	"Black_eyes_positive"	"Black"	"eyes"	"positive"	2	1	229	5	5	"Black24.jpg"	"Pos13.jpg"
10	5	2	2	5	"blackLeft"	"posLeft"	1	2	85	"expBlockEval"	"White_eyes_positive"	"White"	"eyes"	"positive"	1	0	410	5	5	"White1.jpg"	"Pos10.jpg"
10	5	2	2	5	"blackLeft"	"posLeft"	1	2	86	"expBlockEval"	"White_eyes_positive"	"White"	"eyes"	"positive"	2	1	392	5	5	"White16.jpg"	"Pos16.jpg"
10	5	2	2	5	"blackLeft"	"posLeft"	1	2	87	"expBlockEval"	"Black_eyes_negative"	"Black"	"eyes"	"negative"	2	1	517	5	5	"Black26.jpg"	"Neg9.jpg"
10	5	2	2	5	"blackLeft"	"posLeft"	1	2	88	"expBlockEval"	"Black_eyes_positive"	"Black"	"eyes"	"positive"	2	1	473	5	5	"Black6.jpg"	"Pos10.jpg"
10	5	2	2	5	"blackLeft"	"posLeft"	1	2	89	"expBlockEval"	"White_eyes_positive"	"White"	"eyes"	"positive"	2	1	487	5	5	"White20.jpg"	"Pos15.jpg"
10	5	2	2	5	"blackLeft"	"posLeft"	1	2	90	"expBlockEval"	"White_forehead_positive"	"White"	"forehead"	"positive"	2	1	396	5	5	"White14.jpg"	"Pos16.jpg"
10	5	2	2	5	"blackLeft"	"posLeft"	1	2	91	"expBlockEval"	"White_eyes_positive"	"White"	"eyes"	"positive"	1	0	521	5	5	"White10.jpg"	"Pos13.jpg"
10	5	2	2	5	"blackLeft"	"posLeft"	1	2	92	"expBlockEval"	"White_eyes_negative"	"White"	"eyes"	"negative"	2	1	582	5	5	"White1.jpg"	"Neg15.jpg"
10	5	2	2	5	"blackLeft"	"posLeft"	1	2	93	"expBlockEval"	"White_forehead_positive"	"White"	"forehead"	"positive"	2	1	363	5	5	"White11.jpg"	"Pos11.jpg"
10	5	2	2	5	"blackLeft"	"posLeft"	1	2	94	"expBlockEval"	"Black_forehead_negative"	"Black"	"forehead"	"negative"	2	1	520	5	5	"Black32.jpg"	"Neg14.jpg"
10	5	2	2	5	"blackLeft"	"posLeft"	1	2	95	"expBlockEval"	"White_forehead_positive"	"White"	"forehead"	"positive"	2	1	509	5	5	"White56.jpg"	"Pos12.jpg"
10	5	2	2	5	"blackLeft"	"posLeft"	1	2	96	"expBlockEval"	"White_eyes_positive"	"White"	"eyes"	"positive"	2	1	571	5	5	"White22.jpg"	"Pos14.jpg"
10	5	2	2	5	"blackLeft"	"posLeft"	1	2	97	"expBlockEval"	"White_forehead_negative"	"White"	"forehead"	"negative"	2	1	768	5	5	"White35.jpg"	"Neg12.jpg"
10	5	2	2	5	"blackLeft"	"posLeft"	1	2	98	"expBlockEval"	"White_eyes_positive"	"White"	"eyes"	"positive"	2	1	493	5	5	"White6.jpg"	"Pos9.jpg"
10	5	2	2	5	"blackLeft"	"posLeft"	1	2	99	"expBlockEval"	"Black_forehead_negative"	"Black"	"forehead"	"negative"	2	1	659	5	5	"Black51.jpg"	"Neg13.jpg"
10	5	2	2	5	"blackLeft"	"posLeft"	1	2	100	"expBlockEval"	"White_eyes_negative"	"White"	"eyes"	"negative"	2	1	536	5	5	"White38.jpg"	"Neg9.jpg"
10	5	2	2	5	"blackLeft"	"posLeft"	1	2	101	"expBlockEval"	"Black_forehead_negative"	"Black"	"forehead"	"negative"	2	1	517	5	5	"Black16.jpg"	"Neg9.jpg"
10	5	2	2	5	"blackLeft"	"posLeft"	1	2	102	"expBlockEval"	"Black_eyes_negative"	"Black"	"eyes"	"negative"	2	1	498	5	5	"Black31.jpg"	"Neg16.jpg"
10	5	2	2	5	"blackLeft"	"posLeft"	1	2	103	"expBlockEval"	"White_eyes_negative"	"White"	"eyes"	"negative"	2	1	503	5	5	"White16.jpg"	"Neg16.jpg"
10	5	2	2	5	"blackLeft"	"posLeft"	1	2	104	"expBlockEval"	"Black_forehead_negative"	"Black"	"forehead"	"negative"	2	1	500	5	5	"Black6.jpg"	"Neg16.jpg"
10	5	2	2	5	"blackLeft"	"posLeft"	1	2	105	"expBlockEval"	"White_forehead_negative"	"White"	"forehead"	"negative"	2	1	601	5	5	"White22.jpg"	"Neg9.jpg"
10	5	2	2	5	"blackLeft"	"posLeft"	1	2	106	"expBlockEval"	"Black_eyes_negative"	"Black"	"eyes"	"negative"	2	1	574	5	5	"Black36.jpg"	"Neg12.jpg"
10	5	2	2	5	"blackLeft"	"posLeft"	1	2	107	"expBlockEval"	"Black_forehead_negative"	"Black"	"forehead"	"negative"	2	1	674	5	5	"Black33.jpg"	"Neg11.jpg"
10	5	2	2	5	"blackLeft"	"posLeft"	1	2	108	"expBlockEval"	"White_forehead_negative"	"White"	"forehead"	"negative"	2	1	606	5	5	"White11.jpg"	"Neg14.jpg"
10	5	2	2	5	"blackLeft"	"posLeft"	1	2	109	"expBlockEval"	"White_forehead_negative"	"White"	"forehead"	"negative"	2	1	779	5	5	"White5.jpg"	"Neg15.jpg"
10	5	2	2	5	"blackLeft"	"posLeft"	1	2	110	"expBlockEval"	"Black_eyes_negative"	"Black"	"eyes"	"negative"	2	1	520	5	5	"Black15.jpg"	"Neg10.jpg"
10	5	2	2	5	"blackLeft"	"posLeft"	1	2	111	"expBlockEval"	"White_eyes_positive"	"White"	"eyes"	"positive"	2	1	542	5	5	"White18.jpg"	"Pos10.jpg"
10	5	2	2	5	"blackLeft"	"posLeft"	1	2	112	"expBlockEval"	"Black_eyes_negative"	"Black"	"eyes"	"negative"	2	1	619	5	5	"Black27.jpg"	"Neg15.jpg"
10	5	2	2	5	"blackLeft"	"posLeft"	1	2	113	"expBlockEval"	"White_forehead_positive"	"White"	"forehead"	"positive"	2	1	536	5	5	"White31.jpg"	"Pos14.jpg"
10	5	2	2	5	"blackLeft"	"posLeft"	1	2	114	"expBlockEval"	"White_forehead_positive"	"White"	"forehead"	"positive"	2	1	637	5	5	"White12.jpg"	"Pos9.jpg"
10	5	2	2	5	"blackLeft"	"posLeft"	1	2	115	"expBlockEval"	"White_forehead_negative"	"White"	"forehead"	"negative"	1	0	522	5	5	"White8.jpg"	"Neg11.jpg"
10	5	2	2	5	"blackLeft"	"posLeft"	1	2	116	"expBlockEval"	"Black_forehead_negative"	"Black"	"forehead"	"negative"	2	1	647	5	5	"Black15.jpg"	"Neg15.jpg"
10	5	2	2	5	"blackLeft"	"posLeft"	1	2	117	"expBlockEval"	"White_forehead_negative"	"White"	"forehead"	"negative"	2	1	556	5	5	"White2.jpg"	"Neg12.jpg"
10	5	2	2	5	"blackLeft"	"posLeft"	1	2	118	"expBlockEval"	"White_eyes_positive"	"White"	"eyes"	"positive"	2	1	593	5	5	"White11.jpg"	"Pos9.jpg"
10	5	2	2	5	"blackLeft"	"posLeft"	1	2	119	"expBlockEval"	"Black_forehead_positive"	"Black"	"forehead"	"positive"	2	1	462	5	5	"Black8.jpg"	"Pos10.jpg"
10	5	2	2	5	"blackLeft"	"posLeft"	1	2	120	"expBlockEval"	"White_forehead_positive"	"White"	"forehead"	"positive"	2	1	435	5	5	"White32.jpg"	"Pos15.jpg"
10	5	2	2	5	"blackLeft"	"posLeft"	1	2	121	"expBlockEval"	"Black_eyes_positive"	"Black"	"eyes"	"positive"	2	1	576	5	5	"Black50.jpg"	"Pos12.jpg"
10	5	2	2	5	"blackLeft"	"posLeft"	1	2	122	"expBlockEval"	"Black_forehead_negative"	"Black"	"forehead"	"negative"	2	1	581	5	5	"Black10.jpg"	"Neg12.jpg"
10	5	2	2	5	"blackLeft"	"posLeft"	1	2	123	"expBlockEval"	"Black_forehead_positive"	"Black"	"forehead"	"positive"	2	1	394	5	5	"Black17.jpg"	"Pos9.jpg"
10	5	2	2	5	"blackLeft"	"posLeft"	1	2	124	"expBlockEval"	"Black_forehead_negative"	"Black"	"forehead"	"negative"	2	1	624	5	5	"Black24.jpg"	"Neg14.jpg"
10	5	2	2	5	"blackLeft"	"posLeft"	1	2	125	"expBlockEval"	"White_forehead_negative"	"White"	"forehead"	"negative"	2	1	557	5	5	"White10.jpg"	"Neg10.jpg"
10	5	2	2	5	"blackLeft"	"posLeft"	1	2	126	"expBlockEval"	"White_forehead_negative"	"White"	"forehead"	"negative"	2	1	522	5	5	"White33.jpg"	"Neg13.jpg"
10	5	2	2	5	"blackLeft"	"posLeft"	1	2	127	"expBlockEval"	"White_forehead_negative"	"White"	"forehead"	"negative"	2	1	511	5	5	"White1.jpg"	"Neg16.jpg"
10	5	2	2	5	"blackLeft"	"posLeft"	1	2	128	"expBlockEval"	"White_forehead_positive"	"White"	"forehead"	"positive"	2	1	596	5	5	"White1.jpg"	"Pos9.jpg"
10	5	2	2	5	"blackLeft"	"posLeft"	1	2	129	"expBlockEval"	"White_forehead_positive"	"White"	"forehead"	"positive"	3	0	0	5	5	"White9.jpg"	"Pos14.jpg"
10	5	2	2	5	"blackLeft"	"posLeft"	1	2	130	"expBlockEval"	"White_forehead_negative"	"White"	"forehead"	"negative"	3	0	0	5	5	"White21.jpg"	"Neg14.jpg"
10	5	2	2	5	"blackLeft"	"posLeft"	1	2	131	"expBlockEval"	"White_forehead_negative"	"White"	"forehead"	"negative"	3	0	0	5	5	"White14.jpg"	"Neg9.jpg"
10	5	2	2	5	"blackLeft"	"posLeft"	1	2	132	"expBlockEval"	"White_eyes_negative"	"White"	"eyes"	"negative"	2	1	517	5	5	"White31.jpg"	"Neg10.jpg"
10	5	2	2	5	"blackLeft"	"posLeft"	1	2	133	"expBlockEval"	"Black_eyes_negative"	"Black"	"eyes"	"negative"	2	1	530	5	5	"Black33.jpg"	"Neg11.jpg"
10	5	2	2	5	"blackLeft"	"posLeft"	1	2	134	"expBlockEval"	"Black_eyes_negative"	"Black"	"eyes"	"negative"	2	1	463	5	5	"Black9.jpg"	"Neg9.jpg"
10	5	2	2	5	"blackLeft"	"posLeft"	1	2	135	"expBlockEval"	"Black_eyes_negative"	"Black"	"eyes"	"negative"	2	1	485	5	5	"Black51.jpg"	"Neg11.jpg"
10	5	2	2	5	"blackLeft"	"posLeft"	1	2	136	"expBlockEval"	"White_eyes_negative"	"White"	"eyes"	"negative"	2	1	385	5	5	"White32.jpg"	"Neg16.jpg"
10	5	2	2	5	"blackLeft"	"posLeft"	1	2	137	"expBlockEval"	"Black_forehead_positive"	"Black"	"forehead"	"positive"	1	0	415	5	5	"Black32.jpg"	"Pos15.jpg"
10	5	2	2	5	"blackLeft"	"posLeft"	1	2	138	"expBlockEval"	"White_eyes_positive"	"White"	"eyes"	"positive"	2	1	644	5	5	"White34.jpg"	"Pos16.jpg"
10	5	2	2	5	"blackLeft"	"posLeft"	1	2	139	"expBlockEval"	"White_eyes_positive"	"White"	"eyes"	"positive"	2	1	441	5	5	"White32.jpg"	"Pos15.jpg"
10	5	2	2	5	"blackLeft"	"posLeft"	1	2	140	"expBlockEval"	"White_forehead_positive"	"White"	"forehead"	"positive"	2	1	382	5	5	"White35.jpg"	"Pos15.jpg"
10	5	2	2	5	"blackLeft"	"posLeft"	1	2	141	"expBlockEval"	"White_forehead_negative"	"White"	"forehead"	"negative"	2	1	603	5	5	"White26.jpg"	"Neg11.jpg"
10	5	2	2	5	"blackLeft"	"posLeft"	1	2	142	"expBlockEval"	"White_eyes_negative"	"White"	"eyes"	"negative"	2	1	705	5	5	"White8.jpg"	"Neg15.jpg"
